LocMailCnt,count,timestamp,gear,tsns.hasTemp,tsns.temp,Gyro.hasTemp,Gryo.temp,Gyro.hasX,Gyro.x,Gyro.hasY,Gyro.y,Gyro.hasZ,Gyro.z,Gsns.hasTemp,Gsns.temp,Gsns.hasX,Gsns.x,Gsns.hasY,Gsns.y,Gsns.hasZ,Gsns.z,Pls.cycleTime,Pls.cycleCount,Pls.pulseCount
13173,131,1322180,1,0,0,1,34,1,-45.20002,1,-61.600029,1,-282.200104,0,0,1,-550.994385,1,464.595245,1,16532.83203,0,0,0
13173,131,1322180,1,0,0,1,34,1,-51.200024,1,-64.800026,1,-286.400116,0,0,1,-537.194519,1,577.994141,1,16469.43164,211891,1,1
13174,132,1322278,1,0,0,1,34,1,-36.800014,1,-94.40004,1,-274.600098,0,0,1,-509.194794,1,572.794189,1,16397.23242,0,0,0
13174,132,1322278,1,0,0,1,34,1,-48.000019,1,-128.600052,1,-297.80011,0,0,1,-625.993591,1,592.193909,1,16411.83203,0,0,0
13175,133,1322380,1,0,0,1,34,1,-85.200035,1,-77.200035,1,-303.600128,0,0,1,-673.59314,1,577.394104,1,16522.63281,0,0,0
13175,133,1322380,1,0,0,1,34,1,-77.40004,1,-71.800034,1,-300.000122,0,0,1,-598.993896,1,588.19397,1,16586.63086,179968,1,1
13176,134,1322480,1,0,0,1,34,1,-26.800009,1,-177.600098,1,-279.200104,0,0,1,-662.793213,1,658.793274,1,16628.63086,0,0,0
13176,134,1322480,1,0,0,1,34,1,-7.200003,1,-132.600052,1,-275.600128,0,0,1,-753.992371,1,574.594116,1,16508.23242,0,0,0
13177,135,1322580,1,0,0,1,34,1,21.400009,1,-37.600018,1,-261.000092,0,0,1,-751.992371,1,566.394165,1,16505.0332,0,0,1
13177,135,1322580,1,0,0,1,34,1,16.600008,1,-56.600021,1,-246.800095,0,0,1,-764.1922,1,545.394409,1,16693.63086,159078,1,0
13178,136,1322678,1,0,0,1,34,1,44.600018,1,-67.600029,1,-245.600113,0,0,1,-825.191528,1,548.594421,1,16654.0293,0,0,0
13178,136,1322678,1,0,0,1,34,1,24.400011,1,18.800007,1,-211.800079,0,0,1,-794.191895,1,528.594604,1,16556.43164,143820,1,1
13179,137,1322782,1,0,0,1,34,1,-10.400004,1,29.400013,1,-172.600067,0,0,1,-754.192322,1,587.794006,1,16449.63086,0,0,0
13179,137,1322782,1,0,0,1,34,1,3.400002,1,-19.200008,1,-151.000061,0,0,1,-634.99353,1,589.593933,1,16438.63086,0,0,0
13180,138,1322879,1,0,0,1,34,1,10.000004,1,-59.600025,1,-108.40004,0,0,1,-541.39447,1,540.394531,1,16416.23242,0,0,1
13180,138,1322879,1,0,0,1,34,1,-5.400003,1,-92.600044,1,-84.800026,0,0,1,-663.393188,1,551.794373,1,16407.43359,132505,1,0
13181,139,1322983,1,0,0,1,34,1,19.000008,1,-46.800018,1,-111.800049,0,0,1,-675.393066,1,609.593811,1,16504.63281,0,0,1
13181,139,1322983,1,0,0,1,34,1,21.400007,1,-61.200027,1,-126.200058,0,0,1,-842.391357,1,367.596252,1,16452.43164,123750,1,0
13182,140,1323081,1,0,0,1,34,1,53.400024,1,-34.600014,1,-115.600052,0,0,1,-1063.989258,1,279.997131,1,16426.83203,0,0,1
13182,140,1323081,1,0,0,1,34,1,25.00001,1,99.000038,1,-98.20005,0,0,1,-624.593567,1,752.992371,1,16637.23047,119193,1,0
13183,141,1323179,1,0,0,1,34,1,48.20002,1,33.800014,1,-83.000031,0,0,1,-546.794434,1,396.595947,1,16428.83203,0,0,0
13183,141,1323179,1,0,0,1,34,1,74.800034,1,5.400002,1,-68.000023,0,0,1,-545.594482,1,408.195831,1,16524.03125,109491,1,1
13184,142,1323281,1,0,0,1,34,1,80.000023,1,46.20002,1,-95.200043,0,0,1,-494.59491,1,306.596863,1,16649.62891,0,0,0
13184,142,1323281,1,0,0,1,34,1,19.000008,1,-68.600037,1,-80.600037,0,0,1,-646.193359,1,395.795959,1,16490.43164,104883,1,1
13185,143,1323381,1,0,0,1,34,1,-59.000027,1,-140.200058,1,-42.600018,0,0,1,-747.392334,1,405.595825,1,16760.0293,0,0,0
13185,143,1323381,1,0,0,1,34,1,-50.600025,1,-49.200027,1,-33.800011,0,0,1,-660.793213,1,422.995697,1,16635.63086,101094,1,1
13186,144,1323480,1,0,0,1,34,1,30.400013,1,-101.600044,1,-41.800018,0,0,1,-656.793335,1,403.395874,1,16498.63281,0,0,0
13186,144,1323480,1,0,0,1,34,1,27.600012,1,-199.80011,1,-64.400032,0,0,1,-754.792358,1,416.595734,1,16432.83203,97408,1,1
13187,145,1323579,1,0,0,1,34,1,14.400006,1,-51.800026,1,-100.000038,0,0,1,-749.792419,1,366.596252,1,16373.83301,0,0,0
13187,145,1323579,1,0,0,1,34,1,72.800026,1,-9.800005,1,-89.200035,0,0,1,-529.994629,1,356.996338,1,16461.23242,94156,1,1
13188,146,1323682,1,0,0,1,34,1,66.000031,1,-152.800064,1,-59.000027,0,0,1,-743.192444,1,359.596283,1,16316.43262,0,0,1
13188,146,1323682,1,0,0,1,34,1,51.000023,1,-71.200027,1,-45.000019,0,0,1,-796.191895,1,314.39679,1,16297.83398,90649,1,0
13189,147,1323780,1,0,0,1,34,1,44.000015,1,53.400024,1,-54.400028,0,0,1,-896.190796,1,330.396606,1,16385.23242,0,0,1
13189,147,1323780,1,0,0,1,34,1,45.000019,1,54.800022,1,-103.000038,0,0,1,-818.991699,1,171.398239,1,16538.63086,87961,1,0
13190,148,1323878,1,0,0,1,34,1,-49.600021,1,26.600012,1,-80.800034,0,0,1,-681.393066,1,173.398224,1,16698.62891,0,0,1
13190,148,1323878,1,0,0,1,34,1,-41.400017,1,45.600018,1,-65.000031,0,0,1,-530.994568,1,216.797791,1,16530.23242,85324,1,0
13191,149,1323985,1,0,0,1,34,1,-12.400004,1,78.600029,1,-28.800013,0,0,1,-514.394714,1,162.998352,1,16612.42969,82892,1,1
13191,149,1323985,1,0,0,1,34,1,69.000023,1,-84.400032,1,-47.600018,0,0,1,-623.993652,1,140.598557,1,16396.0332,81536,1,1
13192,150,1324083,1,0,0,1,34,1,168.40007,1,-132.800049,1,-70.000023,0,0,1,-595.393921,1,-109.798874,1,16332.03223,0,0,0
13192,150,1324083,1,0,0,1,34,1,173.40007,1,-61.400021,1,-54.800022,0,0,1,-699.792847,1,-188.798065,1,16526.42969,79872,1,1
13193,151,1324179,1,0,0,1,34,1,112.200035,1,-10.200005,1,-47.000019,0,0,1,-560.194275,1,-89.599083,1,16194.23438,0,0,1
13193,151,1324179,1,0,0,1,34,1,102.200043,1,-124.400047,1,-44.600018,0,0,1,-746.392334,1,-284.99707,1,16534.03125,78284,1,0
13194,152,1324278,1,0,0,1,34,1,93.200035,1,-150.200073,1,-39.400017,0,0,1,-734.392456,1,-202.597931,1,16383.83398,76902,1,1
13194,152,1324278,1,0,0,1,34,1,48.000019,1,-61.800022,1,-72.000031,0,0,1,-660.793213,1,-161.398346,1,16287.43262,75520,1,1
13195,153,1324382,1,0,0,1,34,1,5.800003,1,-89.000038,1,-77.800026,0,0,1,-770.192139,1,-306.396881,1,16483.03125,0,0,0
13195,153,1324382,1,0,0,1,34,1,-24.20001,1,-8.600004,1,-69.200027,0,0,1,-787.791931,1,-241.19754,1,16521.03125,74009,1,1
13196,154,1324479,1,0,0,1,34,1,38.800018,1,30.200012,1,-47.000019,0,0,1,-660.193237,1,-296.596954,1,16393.83203,0,0,1
13196,154,1324479,1,0,0,1,34,1,66.000023,1,36.000015,1,-61.000027,0,0,1,-640.593445,1,-171.598251,1,16504.23047,72908,1,0
13197,155,1324578,1,0,0,1,34,1,85.800041,1,-8.400002,1,-80.600029,0,0,1,-604.793823,1,-198.597961,1,16324.03418,72089,1,1
13197,155,1324578,1,0,0,1,34,1,58.600025,1,-91.40004,1,-65.600029,0,0,1,-555.594299,1,-326.596649,1,16322.43262,70963,1,1
13198,156,1324680,1,0,0,1,34,1,112.000053,1,-7.200005,1,-95.200035,0,0,1,-952.590271,1,-329.7966,1,16311.63379,0,0,0
13198,156,1324680,1,0,0,1,34,1,91.800041,1,109.200043,1,-97.600044,0,0,1,-636.793518,1,-276.997192,1,16135.63574,69939,1,1
13199,157,1324781,1,0,0,1,34,1,160.800064,1,-46.800018,1,-59.600025,0,0,1,-819.391663,1,-312.39679,1,16288.23438,68863,1,1
13199,157,1324781,1,0,0,1,34,1,191.600082,1,23.800009,1,-20.600006,0,0,1,-526.394653,1,-257.197357,1,16647.23047,67916,1,1
13200,158,1324880,1,0,0,1,34,1,169.800064,1,-24.20001,1,12.600005,0,0,1,-485.995056,1,-498.194946,1,16629.0293,0,0,0
13200,158,1324880,1,0,0,1,34,1,139.800049,1,-129.800049,1,5.200003,0,0,1,-735.992432,1,-394.995941,1,16621.63281,67148,1,1
13201,159,1324983,1,0,0,1,34,1,42.800018,1,-16.400007,1,-48.000019,0,0,1,-862.591248,1,-484.195068,1,16213.23535,66355,1,1
13201,159,1324983,1,0,0,1,34,1,1.400001,1,2.800001,1,-78.200027,0,0,1,-806.99176,1,-400.795929,1,16465.43164,65612,1,1
13202,160,1325077,1,0,0,1,34,1,33.200012,1,20.200008,1,-71.600029,0,0,1,-613.59375,1,-271.397217,1,16356.03223,0,0,0
13202,160,1325077,1,0,0,1,34,1,60.400024,1,-54.400028,1,-35.800014,0,0,1,-649.19342,1,-339.996521,1,16229.63379,64665,1,1
13203,161,1325179,1,0,0,1,34,1,80.600037,1,-18.800009,1,-41.400017,0,0,1,-667.393188,1,-647.993347,1,16254.03418,63923,1,1
13203,161,1325179,1,0,0,1,34,1,72.400032,1,-49.800018,1,-24.400007,0,0,1,-498.794922,1,-725.192566,1,16417.23242,63360,1,1
13204,162,1325281,1,0,0,1,34,1,25.20001,1,-137.200073,1,-34.200012,0,0,1,-770.592102,1,-956.59021,1,16477.43164,0,0,1
13204,162,1325281,1,0,0,1,34,1,58.600025,1,14.400005,1,-56.600021,0,0,1,-674.793091,1,-1337.586182,1,15958.4375,62848,1,0
13205,163,1325379,1,0,0,1,34,1,164.000076,1,20.800011,1,-60.800026,0,0,1,-779.592041,1,-2129.77832,1,16297.2334,62694,1,1
13205,163,1325379,1,0,0,1,34,1,342.600128,1,17.600006,1,-86.40004,0,0,1,-605.993835,1,-2051.579102,1,15919.83594,62694,1,1
13206,164,1325481,1,0,0,1,34,1,464.400208,1,110.800049,1,-96.40004,0,0,1,-732.79248,1,-2679.972412,1,16164.23535,62515,1,1
13206,164,1325481,1,0,0,1,34,1,486.200195,1,178.600067,1,-100.800041,0,0,1,-322.196747,1,-2727.172363,1,16120.23438,62668,1,1
13207,165,1325580,1,0,0,1,34,1,398.600128,1,49.800022,1,-63.800022,0,0,1,-510.594757,1,-2807.371582,1,15887.83789,0,0,0
13207,165,1325580,1,0,0,1,34,1,231.800095,1,-41.20002,1,-20.600008,0,0,1,-230.197647,1,-2959.769775,1,16053.83691,62489,1,1
13208,166,1325678,1,0,0,1,34,1,105.400047,1,-213.600067,1,-21.000008,0,0,1,-220.997742,1,-2856.170898,1,16390.0332,62796,1,1
13208,166,1325678,1,0,0,1,34,1,23.000011,1,-309.200134,1,-27.000013,0,0,1,-760.592285,1,-2852.570557,1,16146.43457,63001,1,1
13209,167,1325780,1,0,0,1,34,1,-5.400002,1,-124.000046,1,-61.600029,0,0,1,-767.392212,1,-2875.970459,1,15759.83789,0,0,1
13209,167,1325780,1,0,0,1,34,1,-40.600018,1,-11.400005,1,-104.800041,0,0,1,-843.59137,1,-2980.969482,1,16491.03125,63180,1,0
13210,168,1325878,1,0,0,1,34,1,-7.600002,1,-36.400013,1,-93.400047,0,0,1,-707.992798,1,-2697.372314,1,15764.23926,63283,1,1
13210,168,1325878,1,0,0,1,34,1,33.60001,1,63.600021,1,-90.200035,0,0,1,-679.993103,1,-2885.970947,1,15965.83691,63488,1,1
13211,169,1325979,1,0,0,1,34,1,55.400021,1,130.400055,1,-51.000023,0,0,1,-300.996918,1,-2697.372803,1,16426.03125,0,0,1
13211,169,1325979,1,0,0,1,34,1,17.200008,1,27.200014,1,-37.000015,0,0,1,-485.395081,1,-2832.971191,1,15953.4375,63718,1,0
13212,170,1326077,1,0,0,1,34,1,29.200014,1,-66.600029,1,-22.600008,0,0,1,-336.196564,1,-2829.971191,1,16144.23438,64000,1,1
13212,170,1326077,1,0,0,1,34,1,79.000031,1,-70.400024,1,-28.000011,0,0,1,-522.99469,1,-2778.771729,1,16056.23633,64230,1,1
13213,171,1326181,1,0,0,1,34,1,32.200012,1,-62.000023,1,-62.800026,0,0,1,-596.39386,1,-2813.97168,1,16044.63574,64460,1,1
13213,171,1326181,1,0,0,1,34,1,-37.800018,1,-109.200043,1,-83.200043,0,0,1,-641.193481,1,-2884.370361,1,16197.03516,64665,1,1
13214,172,1326278,1,0,0,1,34,1,-41.000023,1,-39.20002,1,-101.400047,0,0,1,-782.791992,1,-2826.371338,1,15827.03711,0,0,0
13214,172,1326278,1,0,0,1,34,1,10.400004,1,36.800014,1,-83.000031,0,0,1,-725.192566,1,-2822.171387,1,16096.63574,64742,1,1
13215,173,1326376,1,0,0,1,34,1,8.800004,1,45.400017,1,-17.200006,0,0,1,-295.796997,1,-2771.771973,1,16198.23438,65024,1,1
13215,173,1326376,1,0,0,1,34,1,28.600012,1,-137.200058,1,-6.800004,0,0,1,-420.595673,1,-2855.371094,1,16231.2334,65279,1,1
13216,174,1326479,1,0,0,1,34,1,8.200004,1,-146.800049,1,-34.400013,0,0,1,-501.394897,1,-2780.571777,1,16080.23633,0,0,0
13216,174,1326479,1,0,0,1,34,1,-20.00001,1,-84.40004,1,-64.800026,0,0,1,-626.993591,1,-2781.571777,1,16163.03516,65587,1,1
13217,175,1326578,1,0,0,1,34,1,-28.600012,1,-86.600037,1,-90.000038,0,0,1,-837.191406,1,-2807.371582,1,16008.63574,65792,1,1
13217,175,1326578,1,0,0,1,34,1,-34.800014,1,-185.40007,1,-27.00001,0,0,1,-1010.589722,1,-2812.77124,1,15829.83691,65996,1,1
13218,176,1326677,1,0,0,1,34,1,18.400007,1,-91.200043,1,58.400024,0,0,1,-870.391235,1,-2927.77002,1,16166.23633,0,0,0
13218,176,1326677,1,0,0,1,34,1,36.000015,1,-98.000046,1,161.600067,0,0,1,-996.789795,1,-2747.171875,1,16282.63379,66227,1,1
13219,177,1326779,1,0,0,1,34,1,49.800022,1,-5.200003,1,200.600082,0,0,1,-963.990112,1,-2871.970703,1,16090.43652,66457,1,1
13219,177,1326779,1,0,0,1,34,1,-10.400004,1,90.40004,1,170.200058,0,0,1,-839.791443,1,-2771.571777,1,16094.23535,66713,1,1
13220,178,1326877,1,0,0,1,34,1,-28.60001,1,50.20002,1,126.20005,0,0,1,-560.79425,1,-2763.371826,1,15756.63867,0,0,0
13220,178,1326877,1,0,0,1,34,1,52.000019,1,-12.000005,1,119.000061,0,0,1,-557.79425,1,-2673.172607,1,16002.63574,67020,1,1
13221,179,1326981,1,0,0,1,34,1,92.000038,1,-60.000023,1,126.60006,0,0,1,-728.992554,1,-2756.771973,1,16117.23633,67276,1,1
13221,179,1326981,1,0,0,1,34,1,99.800041,1,41.600021,1,130.800049,0,0,1,-923.99054,1,-2871.170654,1,16044.63672,67532,1,1
13222,180,1327078,1,0,0,1,34,1,92.800034,1,-1.2,1,155.600082,0,0,1,-714.592651,1,-2716.972168,1,16011.83691,0,0,0
13222,180,1327078,1,0,0,1,34,1,59.600021,1,-118.800056,1,171.200058,0,0,1,-790.791992,1,-2806.771484,1,16041.43555,67635,1,1
13223,181,1327179,1,0,0,1,34,1,87.600044,1,-31.600014,1,145.800049,0,0,1,-669.793152,1,-2693.172363,1,16273.2334,67916,1,1
13223,181,1327179,1,0,0,1,34,1,108.600037,1,30.400013,1,135.200043,0,0,1,-821.791565,1,-2771.771484,1,15939.23828,68198,1,1
13224,182,1327277,1,0,0,1,34,1,109.200043,1,45.000019,1,114.000046,0,0,1,-832.191467,1,-2771.571777,1,16128.83496,0,0,0
13224,182,1327277,1,0,0,1,34,1,65.800034,1,89.800034,1,90.600037,0,0,1,-734.992493,1,-2744.971924,1,16015.83594,68556,1,1
13225,183,1327380,1,0,0,1,34,1,64.200027,1,48.600021,1,102.800034,0,0,1,-718.792664,1,-2653.772705,1,15834.43848,68812,1,1
13225,183,1327380,1,0,0,1,34,1,68.400024,1,-7.400003,1,128.000046,0,0,1,-695.792908,1,-2638.173096,1,15793.43945,69017,1,1
13226,184,1327476,1,0,0,1,34,1,143.200058,1,17.200006,1,130.600052,0,0,1,-711.992798,1,-2769.371826,1,15986.43652,0,0,0
13226,184,1327476,1,0,0,1,34,1,169.40007,1,44.800018,1,113.200058,0,0,1,-638.193481,1,-2834.970947,1,16310.63281,69094,1,1
13227,185,1327576,1,0,0,1,34,1,174.800079,1,-33.600014,1,97.000046,0,0,1,-598.393982,1,-2930.77002,1,16123.63574,0,0,1
13227,185,1327576,1,0,0,1,34,1,92.600037,1,-59.600025,1,77.600037,0,0,1,-677.593018,1,-2847.370605,1,16391.0332,69427,1,0
13228,186,1327676,1,0,0,1,34,1,-6.200003,1,-16.600006,1,83.600029,0,0,1,-714.792786,1,-2836.171143,1,16276.43262,69657,1,1
13228,186,1327676,1,0,0,1,34,1,-34.600014,1,22.400009,1,85.200035,0,0,1,-843.991394,1,-2797.571289,1,15787.83691,69862,1,1
13229,187,1327777,1,0,0,1,34,1,-12.800004,1,22.000008,1,75.600037,0,0,1,-752.392334,1,-2650.373047,1,15943.43848,0,0,1
13229,187,1327777,1,0,0,1,34,1,64.000023,1,18.800009,1,64.000023,0,0,1,-715.392761,1,-2633.572998,1,15939.83691,70220,1,0
13230,188,1327878,1,0,0,1,34,1,95.400055,1,36.400013,1,55.800022,0,0,1,-760.792175,1,-2853.970947,1,15889.23828,70399,1,1
13230,188,1327878,1,0,0,1,34,1,55.600025,1,39.000019,1,78.000031,0,0,1,-754.592285,1,-2860.970947,1,16177.63477,70630,1,1
13231,189,1327978,1,0,0,1,34,1,-15.400007,1,40.600018,1,98.400047,0,0,1,-659.39325,1,-2760.371826,1,16383.83398,0,0,0
13231,189,1327978,1,0,0,1,34,1,-73.200027,1,11.400004,1,94.600037,0,0,1,-637.193542,1,-2808.971436,1,16082.03613,70809,1,1
13232,190,1328080,1,0,0,1,34,1,-101.800041,1,-1.000001,1,97.400032,0,0,1,-568.994141,1,-2634.973145,1,16097.03613,0,0,1
13232,190,1328080,1,0,0,1,34,1,21.20001,1,-50.000023,1,97.000031,0,0,1,-615.393677,1,-2617.17334,1,15927.43848,71039,1,0
13233,191,1328182,1,0,0,1,34,1,101.000046,1,-67.800034,1,83.600037,0,0,1,-779.392029,1,-2743.972168,1,15888.03711,71372,1,1
13233,191,1328182,1,0,0,1,34,1,136.40007,1,-24.00001,1,65.000031,0,0,1,-907.590759,1,-2716.172119,1,15989.83496,71731,1,1
13234,192,1328278,1,0,0,1,34,1,141.600067,1,22.600008,1,36.600018,0,0,1,-690.792969,1,-2679.57251,1,16088.03516,0,0,1
13234,192,1328278,1,0,0,1,34,1,110.800049,1,0.4,1,66.600029,0,0,1,-769.992188,1,-2888.770508,1,15955.03711,71910,1,0
13235,193,1328375,1,0,0,1,34,1,14.600007,1,92.40004,1,66.800026,0,0,1,-734.992554,1,-2726.37207,1,16334.03418,72115,1,1
13235,193,1328375,1,0,0,1,34,1,-16.400007,1,179.200058,1,42.800018,0,0,1,-508.194794,1,-2734.37207,1,16125.23633,72268,1,1
13236,194,1328477,1,0,0,1,34,1,33.800011,1,57.000019,1,0.800001,0,0,1,-654.993347,1,-2678.57251,1,15893.23731,0,0,0
13236,194,1328477,1,0,0,1,34,1,104.400055,1,80.400032,1,-38.600018,0,0,1,-568.794189,1,-2564.57373,1,16045.03711,72601,1,1
13237,195,1328575,1,0,0,1,34,1,167.000076,1,134.000061,1,-50.600021,0,0,1,-539.994507,1,-2831.571289,1,16073.43555,0,0,1
13237,195,1328575,1,0,0,1,34,1,172.800079,1,86.200035,1,-15.000007,0,0,1,-551.194336,1,-2854.570801,1,16027.03516,72960,1,0
13238,196,1328677,1,0,0,1,34,1,47.800022,1,62.800022,1,-19.800009,0,0,1,-574.194153,1,-2644.9729,1,16057.23633,73216,1,1
13238,196,1328677,1,0,0,1,34,1,33.600014,1,41.200016,1,-37.000015,0,0,1,-705.19281,1,-2728.572021,1,16042.83496,73318,1,1
13239,197,1328779,1,0,0,1,34,1,88.800034,1,104.200043,1,-52.20002,0,0,1,-428.39563,1,-2710.572266,1,15859.03711,0,0,0
13239,197,1328779,1,0,0,1,34,1,52.20002,1,-5.000002,1,-74.000031,0,0,1,-491.195007,1,-2690.972412,1,16254.03418,73600,1,1
13240,198,1328879,1,0,0,1,34,1,89.000046,1,17.400007,1,-93.400047,0,0,1,-647.193481,1,-2785.371826,1,16253.83301,0,0,1
13240,198,1328879,1,0,0,1,34,1,61.200027,1,119.800049,1,-119.400047,0,0,1,-662.793213,1,-2828.77124,1,16246.03418,73804,1,0
13241,199,1328979,1,0,0,1,34,1,-17.000006,1,139.600067,1,-118.600044,0,0,1,-540.39447,1,-2636.9729,1,16009.23535,74112,1,1
13241,199,1328979,1,0,0,1,34,1,-65.200027,1,93.800034,1,-106.800034,0,0,1,-507.394806,1,-2678.972412,1,15966.63672,74342,1,1
13242,200,1329078,1,0,0,1,34,1,-22.200008,1,59.000027,1,-107.600037,0,0,1,-351.596436,1,-2560.174072,1,15832.03906,0,0,0
13242,200,1329078,1,0,0,1,34,1,8.800004,1,-41.800018,1,-89.40004,0,0,1,-525.594666,1,-2659.572754,1,16058.03613,74521,1,1
13243,201,1329176,1,0,0,1,34,1,73.200027,1,27.800013,1,-124.800049,0,0,1,-819.591614,1,-2765.971924,1,16240.63379,0,0,1
13243,201,1329176,1,0,0,1,34,1,66.800018,1,117.400055,1,-121.400055,0,0,1,-643.793457,1,-2822.571289,1,16257.2334,74803,1,0
13244,202,1329277,1,0,0,1,34,1,14.400006,1,62.000031,1,-99.200035,0,0,1,-754.192322,1,-2801.971436,1,16129.43457,75059,1,1
13244,202,1329277,1,0,0,1,34,1,-38.000015,1,193.400085,1,-92.000038,0,0,1,-608.193787,1,-2857.570801,1,16204.43457,75315,1,1
13245,203,1329378,1,0,0,1,34,1,-93.000038,1,259.200104,1,-105.200035,0,0,1,-483.795074,1,-2546.77417,1,16004.83789,0,0,0
13245,203,1329378,1,0,0,1,34,1,-42.200016,1,182.400085,1,-106.600044,0,0,1,-263.997314,1,-2572.373779,1,15980.63672,75315,1,1
13246,204,1329476,1,0,0,1,34,1,19.200008,1,104.200043,1,-156.000076,0,0,1,-128.398682,1,-2518.974365,1,15822.83789,0,0,1
13246,204,1329476,1,0,0,1,34,1,131.800049,1,49.800018,1,-183.800079,0,0,1,-132.198654,1,-2588.173584,1,15787.83691,75852,1,0
13247,205,1329574,1,0,0,1,34,1,164.600067,1,-111.200043,1,-167.000061,0,0,1,-383.196136,1,-2641.173096,1,16020.23731,76108,1,1
13247,205,1329574,1,0,0,1,34,1,154.600067,1,-146.400055,1,-101.600044,0,0,1,-688.992981,1,-2846.970703,1,16220.03418,76390,1,1
13248,206,1329679,1,0,0,1,34,1,56.600029,1,-160.000076,1,-13.000005,0,0,1,-491.594971,1,-2806.571289,1,16239.03418,0,0,0
13248,206,1329679,1,0,0,1,34,1,35.600018,1,-98.800034,1,-55.000023,0,0,1,-588.593994,1,-2635.173096,1,16379.23242,76390,1,1
13249,207,1329778,1,0,0,1,34,1,74.000031,1,-68.600037,1,-172.600067,0,0,1,-580.194092,1,-2699.972168,1,16243.43359,0,0,1
13249,207,1329778,1,0,0,1,34,1,146.600067,1,-108.600052,1,-208.400085,0,0,1,-833.391418,1,-2656.372803,1,15939.03711,76902,1,0
13250,208,1329876,1,0,0,1,34,1,172.800079,1,40.400021,1,-168.600067,0,0,1,-951.59021,1,-2753.371826,1,16202.23438,77158,1,1
13250,208,1329876,1,0,0,1,34,1,153.600067,1,321.80014,1,-103.000038,0,0,1,-844.591309,1,-2802.771729,1,16248.63379,77542,1,1
13251,209,1329981,1,0,0,1,34,1,93.800041,1,308.200134,1,-40.800014,0,0,1,-504.394836,1,-2778.171631,1,15912.6377,0,0,0
13251,209,1329981,1,0,0,1,34,1,-1.800002,1,178.000092,1,-2.600001,0,0,1,-239.397552,1,-2608.773438,1,15711.8418,77644,1,1
13252,210,1330076,1,0,0,1,34,1,-58.800026,1,59.400028,1,12.400005,0,0,1,-103.798943,1,-2549.773926,1,15773.43848,0,0,1
13252,210,1330076,1,0,0,1,34,1,-93.800034,1,-75.600037,1,28.60001,0,0,1,-312.196808,1,-2575.373535,1,15868.23731,77952,1,0
13253,211,1330180,1,0,0,1,34,1,2.600001,1,-209.400085,1,14.800008,0,0,1,-475.795105,1,-2561.573975,1,16079.03516,0,0,1
13253,211,1330180,1,0,0,1,34,1,155.800064,1,-234.80011,1,-17.600008,0,0,1,-701.592896,1,-2720.572021,1,16323.63477,77875,1,1
13254,212,1330277,1,0,0,1,34,1,193.600082,1,-82.40004,1,16.600006,0,0,1,-821.19165,1,-2702.572266,1,16278.83398,78438,1,0
13254,212,1330277,1,0,0,1,34,1,115.600067,1,114.000046,1,108.40004,0,0,1,-645.593384,1,-2865.17041,1,16278.63281,78566,1,1
13255,213,1330379,1,0,0,1,34,1,22.800009,1,22.600008,1,109.40004,0,0,1,-474.595123,1,-2788.171387,1,16152.03516,0,0,0
13255,213,1330379,1,0,0,1,34,1,-51.800026,1,-38.200016,1,-27.60001,0,0,1,-762.792175,1,-2546.773926,1,15883.6377,78924,1,1
13256,214,1330477,1,0,0,1,34,1,2.200001,1,136.40007,1,-151.800064,0,0,1,-981.390015,1,-2721.372314,1,16526.63281,0,0,1
13256,214,1330477,1,0,0,1,34,1,15.800007,1,329.80014,1,-205.600098,0,0,1,-339.596527,1,-2394.375488,1,15903.23926,79027,1,0
13257,215,1330576,1,0,0,1,34,1,146.800079,1,191.600082,1,-154.800049,0,0,1,-302.19693,1,-2762.771973,1,15712.23926,79232,1,1
13257,215,1330576,1,0,0,1,34,1,150.000061,1,37.200016,1,-52.600021,0,0,1,-245.997498,1,-2606.373291,1,16050.43652,79564,1,1
13258,216,1330679,1,0,0,1,34,1,63.000027,1,17.200006,1,7.400002,0,0,1,-431.595581,1,-2492.374756,1,16349.23242,0,0,0
13258,216,1330679,1,0,0,1,34,1,-55.400024,1,2.800001,1,41.20002,0,0,1,-618.393738,1,-2367.575928,1,16361.23438,79615,1,1
13259,217,1330778,1,0,0,1,34,1,-158.000061,1,7.600003,1,-15.400007,0,0,1,-508.7948,1,-2183.977539,1,16097.63477,0,0,0
13259,217,1330778,1,0,0,1,34,1,-148.200058,1,-46.000019,1,-111.800049,0,0,1,-807.391785,1,-2016.579346,1,15999.43652,79488,1,1
13260,218,1330879,1,0,0,1,34,1,-18.000008,1,102.800049,1,-187.000076,0,0,1,-660.993286,1,-1971.779785,1,16093.03711,0,0,1
13260,218,1330879,1,0,0,1,34,1,106.400047,1,300.400146,1,-156.000076,0,0,1,-615.393738,1,-2103.778564,1,16268.83398,79334,1,0
13261,219,1330981,1,0,0,1,34,1,146.200073,1,385.600159,1,-78.200035,0,0,1,-762.1922,1,-2179.577637,1,16325.23242,79360,1,1
13261,219,1330981,1,0,0,1,34,1,102.000046,1,356.400146,1,-50.400021,0,0,1,-661.793213,1,-2188.777832,1,16007.03809,79385,1,1
13262,220,1331078,1,0,0,1,34,1,125.800056,1,267.600098,1,-47.400021,0,0,1,139.39856,1,-2017.979492,1,16132.83594,0,0,0
13262,220,1331078,1,0,0,1,34,1,73.600037,1,14.200007,1,8.800004,0,0,1,72.599258,1,-2079.178711,1,15977.63672,79001,1,1
13263,221,1331178,1,0,0,1,34,1,-51.800026,1,-131.800049,1,84.40004,0,0,1,-167.598282,1,-2188.377686,1,16087.63672,0,0,1
13263,221,1331178,1,0,0,1,34,1,-63.80003,1,-338.000122,1,85.40004,0,0,1,-525.394592,1,-2058.178955,1,16097.43555,78796,1,0
13264,222,1331274,1,0,0,1,34,1,65.800026,1,-300.200134,1,40.400021,0,0,1,-1000.189819,1,-2197.977539,1,16274.0332,0,0,1
13264,222,1331274,1,0,0,1,34,1,123.400047,1,9.800003,1,-28.20001,0,0,1,-898.990784,1,-2129.578369,1,16269.23438,78592,1,0
13265,223,1331379,1,0,0,1,34,1,115.600044,1,113.800041,1,-9.200004,0,0,1,-611.793762,1,-2113.578613,1,16045.83691,78745,1,1
13265,223,1331379,1,0,0,1,34,1,127.800056,1,77.400032,1,41.600018,0,0,1,-281.797119,1,-2218.377441,1,15967.83789,78489,1,1
13266,224,1331476,1,0,0,1,34,1,54.800022,1,-20.000008,1,53.400024,0,0,1,-504.994843,1,-2226.177246,1,16409.23242,0,0,0
13266,224,1331476,1,0,0,1,34,1,17.000008,1,7.000003,1,64.600029,0,0,1,-665.993164,1,-2248.977051,1,16247.2334,78464,1,1
13267,225,1331575,1,0,0,1,34,1,-0.4,1,17.400007,1,49.600021,0,0,1,-813.591736,1,-2214.577148,1,16368.63281,0,0,1
13267,225,1331575,1,0,0,1,34,1,26.20001,1,32.400013,1,19.400007,0,0,1,-255.797394,1,-2161.177979,1,15938.6377,78105,1,0
13268,226,1331677,1,0,0,1,34,1,-18.200008,1,-24.200012,1,42.200016,0,0,1,-319.396759,1,-2132.178467,1,15925.23731,0,0,1
13268,226,1331677,1,0,0,1,34,1,48.20002,1,19.600008,1,58.400024,0,0,1,-225.797684,1,-2020.379272,1,16117.83496,78208,1,1
13269,227,1331777,1,0,0,1,34,1,95.000038,1,-121.600052,1,42.800018,0,0,1,-530.394592,1,-2351.176025,1,16423.83203,78131,1,0
13269,227,1331777,1,0,0,1,34,1,6.600003,1,-114.800041,1,27.400011,0,0,1,-728.592529,1,-2323.776367,1,16174.63477,78028,1,1
13270,228,1331876,1,0,0,1,34,1,-69.800034,1,45.800018,1,5.400002,0,0,1,-751.592346,1,-2022.379272,1,16354.43457,0,0,0
13270,228,1331876,1,0,0,1,34,1,-101.400047,1,29.000017,1,33.800018,0,0,1,-359.796356,1,-1608.783691,1,16183.03418,77593,1,1
13271,229,1331977,1,0,0,1,34,1,-174.800079,1,-157.600067,1,85.000038,0,0,1,-357.996307,1,-1559.18396,1,15995.83691,0,0,1
13271,229,1331977,1,0,0,1,34,1,-180.600082,1,-182.800079,1,143.40007,0,0,1,-380.796143,1,-1790.781738,1,16419.43164,77260,1,0
13272,230,1332076,1,0,0,1,34,1,-131.000046,1,-178.000092,1,106.600044,0,0,1,-710.392761,1,-1663.58313,1,16565.42969,76800,1,1
13272,230,1332076,1,0,0,1,34,1,-82.800041,1,-251.200119,1,36.000015,0,0,1,-765.592285,1,-1683.982788,1,16409.03125,76339,1,1
13273,231,1332179,1,0,0,1,34,1,-42.200016,1,-79.600037,1,-15.800007,0,0,1,-825.191528,1,-1472.984985,1,16061.23633,0,0,0
13273,231,1332179,1,0,0,1,34,1,30.000011,1,116.400047,1,10.400004,0,0,1,-692.99292,1,-1605.783691,1,15874.23731,76160,1,1
13274,232,1332278,1,0,0,1,34,1,6.000002,1,37.200016,1,50.20002,0,0,1,-385.996094,1,-1429.385376,1,16020.83594,0,0,1
13274,232,1332278,1,0,0,1,34,1,42.200016,1,-81.800034,1,44.200016,0,0,1,-453.995361,1,-1811.581543,1,16322.63184,75673,1,0
13275,233,1332379,1,0,0,1,34,1,65.600029,1,-158.000061,1,39.400013,0,0,1,-648.19342,1,-1659.783081,1,16377.63281,75212,1,1
13275,233,1332379,1,0,0,1,34,1,49.200016,1,30.000011,1,-11.200005,0,0,1,-740.592468,1,-1702.982788,1,16228.03418,74726,1,1
13276,234,1332478,1,0,0,1,34,1,58.200024,1,-52.200027,1,14.000006,0,0,1,-534.994568,1,-1768.181885,1,16464.43164,0,0,0
13276,234,1332478,1,0,0,1,34,1,-16.600006,1,-97.800049,1,52.800022,0,0,1,-609.59375,1,-1557.384155,1,16009.83594,74316,1,1
13277,235,1332575,1,0,0,1,34,1,3.200001,1,-24.00001,1,62.200031,0,0,1,-558.394287,1,-1712.38269,1,16331.43359,0,0,1
13277,235,1332575,1,0,0,1,34,1,87.200043,1,-26.000013,1,12.000006,0,0,1,-492.195007,1,-1567.783936,1,16276.0332,73958,1,0
13278,236,1332674,1,0,0,1,34,1,163.000061,1,-75.800034,1,-22.200008,0,0,1,-581.394104,1,-1526.384521,1,15921.63672,73676,1,1
13278,236,1332674,1,0,0,1,34,1,191.200073,1,-42.600014,1,-29.800013,0,0,1,-675.993103,1,-1686.182739,1,16138.83496,73344,1,1
13279,237,1332778,1,0,0,1,34,1,135.800049,1,52.000019,1,-24.20001,0,0,1,-776.792053,1,-1887.580688,1,16207.83398,0,0,0
13279,237,1332778,1,0,0,1,34,1,38.400017,1,38.000015,1,-15.200006,0,0,1,-609.793762,1,-1767.38208,1,16412.63281,72960,1,1
13280,238,1332878,1,0,0,1,34,1,-68.400032,1,3.600002,1,37.400017,0,0,1,-494.594971,1,-1733.582275,1,16462.23047,0,0,1
13280,238,1332878,1,0,0,1,34,1,-115.400047,1,-18.600008,1,21.400009,0,0,1,-545.394409,1,-1361.58606,1,16433.23242,72396,1,1
13281,239,1332975,1,0,0,1,34,1,-59.000027,1,-53.000023,1,-3.400001,0,0,1,-403.195923,1,-1189.187744,1,16248.0332,71782,1,0
13281,239,1332975,1,0,0,1,34,1,-73.000031,1,-131.800049,1,-43.000023,0,0,1,-669.793152,1,-1138.788452,1,16325.63379,71270,1,1
13282,240,1333073,1,0,0,1,34,1,-67.600029,1,63.200027,1,-59.800026,0,0,1,-927.590637,1,-1125.388428,1,16260.63379,0,0,1
13282,240,1333073,1,0,0,1,34,1,-124.600052,1,150.40007,1,-6.600003,0,0,1,-657.193298,1,-950.190186,1,16348.83301,70732,1,0
13283,241,1333179,1,0,0,1,34,1,-96.000038,1,-30.200012,1,12.400004,0,0,1,-543.194458,1,-953.39032,1,16078.83594,70143,1,1
13283,241,1333179,1,0,0,1,34,1,-75.000031,1,-73.800026,1,25.000011,0,0,1,-456.395386,1,-899.590759,1,16109.23438,69529,1,1
13284,242,1333276,1,0,0,1,34,1,-30.400013,1,-58.600025,1,-3.600002,0,0,1,-434.595581,1,-903.790771,1,16119.83496,0,0,1
13284,242,1333276,1,0,0,1,34,1,101.600044,1,-148.200058,1,-38.600018,0,0,1,-447.795471,1,-1048.389282,1,16099.63477,68863,1,0
13285,243,1333375,1,0,0,1,34,1,175.200058,1,-247.200089,1,-30.600014,0,0,1,-675.993103,1,-903.590759,1,16470.63086,68249,1,1
13285,243,1333375,1,0,0,1,34,1,228.800095,1,-160.800064,1,10.800004,0,0,1,-651.193359,1,-1104.588745,1,16446.23047,67788,1,1
13286,244,1333479,1,0,0,1,34,1,226.400085,1,-155.800064,1,23.00001,0,0,1,-807.391785,1,-1219.587524,1,16350.83398,0,0,0
13286,244,1333479,1,0,0,1,34,1,135.800049,1,-110.400047,1,37.600018,0,0,1,-873.191162,1,-1154.388184,1,16398.0332,67251,1,1
13287,245,1333575,1,0,0,1,34,1,121.200058,1,-23.00001,1,-28.800013,0,0,1,-1074.589111,1,-1230.987305,1,16464.42969,66611,1,1
13287,245,1333575,1,0,0,1,34,1,113.400055,1,141.000061,1,-92.40004,0,0,1,-891.390869,1,-1164.188232,1,16439.43359,66073,1,1
13288,246,1333679,1,0,0,1,34,1,41.000019,1,225.400101,1,-85.600037,0,0,1,-670.59314,1,-1260.987183,1,16200.03516,0,0,0
13288,246,1333679,1,0,0,1,34,1,35.400017,1,92.000038,1,-33.600018,0,0,1,-394.995941,1,-1114.188599,1,16511.63086,65536,1,1
13289,247,1333775,1,0,0,1,34,1,-17.400007,1,34.200012,1,55.400024,0,0,1,-252.997421,1,-1148.388306,1,16124.63477,64972,1,1
13289,247,1333775,1,0,0,1,34,1,-92.200043,1,-132.800064,1,117.600052,0,0,1,-212.997849,1,-1108.588623,1,16195.83398,64512,1,1
13290,248,1333879,1,0,0,1,34,1,-118.800041,1,-344.400146,1,78.600029,0,0,1,-592.593933,1,-1182.187866,1,16355.63281,0,0,1
13290,248,1333879,1,0,0,1,34,1,-130.40004,1,-279.80014,1,2.200001,0,0,1,-935.990417,1,-1221.187622,1,16016.83887,64025,1,0
13291,249,1333975,1,0,0,1,34,1,-158.000061,1,-160.000061,1,-69.600029,0,0,1,-948.790344,1,-1020.5896,1,16300.43457,63590,1,1
13291,249,1333975,1,0,0,1,34,1,-120.600052,1,-115.20005,1,-75.800026,0,0,1,-838.59137,1,-1190.187744,1,16418.43359,63027,1,1
13292,250,1334075,1,0,0,1,34,1,-90.600044,1,0.6,1,-52.600021,0,0,1,-757.192261,1,-1056.989258,1,16411.63281,62617,1,1
13292,250,1334075,1,0,0,1,34,1,26.00001,1,40.800018,1,-39.400021,0,0,1,-765.192139,1,-1207.387695,1,16357.03125,62259,1,1
13293,251,1334177,1,0,0,1,34,1,-9.400003,1,103.800041,1,-22.800009,0,0,1,-523.994629,1,-1238.587402,1,16685.42969,0,0,0
13293,251,1334177,1,0,0,1,34,1,25.000011,1,48.800022,1,-50.400024,0,0,1,-592.993958,1,-1162.188232,1,16026.83691,61875,1,1
13294,252,1334277,1,0,0,1,34,1,21.200008,1,-62.400032,1,-45.000015,0,0,1,-467.795258,1,-1106.188599,1,16117.63574,61491,1,1
13294,252,1334277,1,0,0,1,34,1,53.400024,1,-99.40004,1,-53.800026,0,0,1,-762.792236,1,-1170.988037,1,16423.23242,61184,1,1
13295,253,1334375,1,0,0,1,34,1,33.000011,1,37.800018,1,-54.400021,0,0,1,-806.791748,1,-1228.187378,1,16022.4375,0,0,1
13295,253,1334375,1,0,0,1,34,1,62.200024,1,-30.800014,1,-65.600021,0,0,1,-806.191772,1,-1244.58728,1,16446.63281,60748,1,0
13296,254,1334477,1,0,0,1,34,1,81.200035,1,-36.200016,1,-46.600018,0,0,1,-519.594666,1,-1108.588623,1,16148.23535,60313,1,1
13296,254,1334477,1,0,0,1,34,1,78.600037,1,-56.400021,1,2.199999,0,0,1,-365.39624,1,-1249.58728,1,16365.83301,60006,1,1
13297,255,1334572,1,0,0,1,34,1,95.200035,1,-226.600082,1,32.800014,0,0,1,-837.791443,1,-1155.988281,1,16398.83203,59699,1,1
13297,255,1334572,1,0,0,1,34,1,66.200027,1,-35.600014,1,-18.600008,0,0,1,-568.394226,1,-1193.587891,1,16374.03418,59392,1,1
13298,0,1334676,1,0,0,1,34,1,79.600037,1,-126.000053,1,-50.800026,0,0,1,-827.191528,1,-1302.186646,1,16010.43652,0,0,1
13298,0,1334676,1,0,0,1,34,1,22.200008,1,-39.400021,1,-58.400024,0,0,1,-973.590088,1,-1206.987671,1,16179.03711,59059,1,1
13299,1,1334778,1,0,0,1,34,1,110.000046,1,159.000061,1,-62.000031,0,0,1,-1152.988159,1,-1235.187256,1,16106.43457,58675,1,0
13299,1,1334778,1,0,0,1,34,1,131.800064,1,213.600067,1,-66.400032,0,0,1,-928.590393,1,-1359.386108,1,16294.43262,58291,1,1
13300,2,1334875,1,0,0,1,34,1,104.000038,1,198.800079,1,-51.200016,0,0,1,-425.39566,1,-1091.78894,1,16418.83203,58009,1,1
13300,2,1334875,1,0,0,1,34,1,60.200024,1,98.400047,1,-57.600025,0,0,1,-527.194641,1,-1173.987915,1,16147.63477,57676,1,1
13301,3,1334973,1,0,0,1,34,1,93.800049,1,87.600029,1,-53.000019,0,0,1,-156.198395,1,-1330.586426,1,16423.0332,57497,1,1
13301,3,1334973,1,0,0,1,34,1,90.200027,1,-73.200027,1,-56.600029,0,0,1,-585.394043,1,-1392.585815,1,16301.43457,57088,1,1
13302,4,1335077,1,0,0,1,34,1,95.800041,1,-158.40007,1,-41.20002,0,0,1,-921.190613,1,-1213.387573,1,16331.23242,0,0,1
13302,4,1335077,1,0,0,1,34,1,-55.600021,1,-59.400028,1,-54.800022,0,0,1,-400.395905,1,-1365.786011,1,16932.22656,56959,1,0
13303,5,1335180,1,0,0,1,34,1,-203.200089,1,-82.800041,1,-108.000053,0,0,1,-1021.389587,1,-1328.386475,1,15966.03613,56524,1,1
13303,5,1335180,1,0,0,1,34,1,-236.800079,1,96.40004,1,-142.40007,0,0,1,-596.593872,1,-975.390137,1,16254.83398,56063,1,1
13304,6,1335274,1,0,0,1,34,1,-162.000076,1,255.600113,1,-193.600098,0,0,1,-558.594238,1,-951.390259,1,16358.63281,55680,1,1
13304,6,1335274,1,0,0,1,34,1,-68.400024,1,192.200089,1,-182.600082,0,0,1,-546.994385,1,-900.790771,1,16205.0332,55526,1,1
13305,7,1335378,1,0,0,1,34,1,-46.000019,1,243.200104,1,-210.000076,0,0,1,-185.998108,1,-1115.588623,1,15940.23731,55296,1,1
13305,7,1335378,1,0,0,1,34,1,8.800003,1,87.000038,1,-237.800095,0,0,1,-591.19397,1,-1011.389771,1,16083.03516,54988,1,1
13306,8,1335475,1,0,0,1,34,1,59.400028,1,264.400116,1,-269.200104,0,0,1,-553.394348,1,-1151.988281,1,16412.23242,54630,1,1
13306,8,1335475,1,0,0,1,34,1,196.600098,1,222.400085,1,-278.400116,0,0,1,5.199955,1,-700.792786,1,16235.83398,54451,1,1
13307,9,1335584,1,0,0,1,34,1,372.200165,1,-16.400007,1,-254.200104,0,0,1,-346.396484,1,-1310.586548,1,16559.63086,54246,1,1
13307,9,1335584,1,0,0,1,34,1,389.400177,1,-42.000019,1,-253.600113,0,0,1,-235.59758,1,-805.991821,1,15607.64063,54169,1,1
13308,10,1335676,1,0,0,1,34,1,347.000153,1,-151.800064,1,-298.000122,0,0,1,-479.995056,1,-1191.787842,1,16656.83008,0,0,1
13308,10,1335676,1,0,0,1,34,1,250.400101,1,-68.000023,1,-301.400146,0,0,1,-510.994812,1,-1159.988159,1,15830.43945,53683,1,0
13309,11,1335776,1,0,0,1,34,1,198.200073,1,-46.20002,1,-323.000122,0,0,1,-648.193481,1,-1263.787109,1,15989.43652,53350,1,1
13309,11,1335776,1,0,0,1,34,1,100.200043,1,108.40004,1,-323.000122,0,0,1,-728.792603,1,-1143.188354,1,16232.23438,53068,1,1
13310,12,1335874,1,0,0,1,34,1,136.200073,1,224.80011,1,-336.80014,0,0,1,-388.996033,1,-1378.985962,1,16453.03125,52812,1,1
13310,12,1335874,1,0,0,1,34,1,-5.600002,1,190.200089,1,-343.600128,0,0,1,-392.595978,1,-1405.585815,1,16917.22656,52582,1,1
13311,13,1335976,1,0,0,1,34,1,-155.800064,1,172.200073,1,-335.400146,0,0,1,145.398514,1,-1243.187256,1,16743.23047,52147,1,1
13311,13,1335976,1,0,0,1,34,1,-217.000076,1,40.200008,1,-307.000122,0,0,1,-103.198967,1,-1317.586548,1,16566.42969,52096,1,1
13312,14,1336073,1,0,0,1,34,1,-247.200119,1,-30.200012,1,-345.80014,0,0,1,323.796692,1,-1206.387695,1,16108.63379,51942,1,1
13312,14,1336073,1,0,0,1,34,1,-214.000092,1,-209.600082,1,-465.200195,0,0,1,-11.399889,1,-994.189819,1,16156.63477,51558,1,1
13313,15,1336176,1,0,0,1,34,1,-193.200089,1,-8.600003,1,-555.200195,0,0,1,4.99994,1,-780.791992,1,15938.23731,51276,1,1
13313,15,1336176,1,0,0,1,34,1,-85.800041,1,87.800041,1,-610.200256,0,0,1,-303.996857,1,-1016.389587,1,15812.23828,51046,1,1
13314,16,1336276,1,0,0,1,34,1,101.600044,1,105.200043,1,-579.000244,0,0,1,-198.997971,1,-939.590393,1,15731.84082,50918,1,1
13314,16,1336276,1,0,0,1,34,1,392.600098,1,115.400047,1,-582.200256,0,0,1,-16.999826,1,-1001.989746,1,16155.23438,50713,1,1
13315,17,1336374,1,0,0,1,34,1,571.400269,1,-17.400005,1,-539.000244,0,0,1,414.795776,1,-1001.989746,1,16288.0332,50560,1,1
13315,17,1336374,1,0,0,1,34,1,668.800354,1,-335.80014,1,-510.60022,0,0,1,453.595367,1,-1643.383179,1,16458.43164,50406,1,1
13316,18,1336473,1,0,0,1,34,1,490.400238,1,-574.600281,1,-462.60022,0,0,1,-154.598404,1,-1806.781372,1,17794.01758,50176,1,1
13316,18,1336473,1,0,0,1,34,1,125.20005,1,-519.800232,1,-454.200195,0,0,1,-357.796356,1,-1892.580933,1,16941.02539,49791,1,1
13317,19,1336578,1,0,0,1,34,1,-319.600128,1,-404.400177,1,-472.400177,0,0,1,-669.59314,1,-1624.583496,1,16603.42969,49664,1,1
13317,19,1336578,1,0,0,1,34,1,-698.800293,1,-180.000076,1,-524.800232,0,0,1,-882.390869,1,-1487.184692,1,16458.83203,49356,1,1
13318,20,1336676,1,0,0,1,34,1,-967.200378,1,147.200058,1,-558.200195,0,0,1,-965.390198,1,-1387.985718,1,16503.63086,49100,1,1
13318,20,1336676,1,0,0,1,34,1,-1064.200439,1,429.400177,1,-539.000183,0,0,1,-325.796661,1,-1301.986694,1,16299.83203,48665,1,1
13319,21,1336772,1,0,0,1,34,1,-1050.200439,1,250.800095,1,-421.400208,0,0,1,269.397247,1,-1072.38916,1,16288.63379,48665,1,1
13319,21,1336772,1,0,0,1,34,1,-730.400269,1,42.800018,1,-350.600159,0,0,1,181.598129,1,-643.393433,1,16543.83008,48563,1,1
13320,22,1336876,1,0,0,1,34,1,-134.200058,1,-73.400024,1,-360.800171,0,0,1,269.59726,1,-557.994324,1,15930.83789,48409,1,1
13320,22,1336876,1,0,0,1,34,1,436.800171,1,-330.600128,1,-401.80014,0,0,1,-97.39901,1,-761.392212,1,15734.84082,48383,1,1
13321,23,1336975,1,0,0,1,34,1,798.800354,1,-381.80014,1,-460.600159,0,0,1,-141.198547,1,-1108.788574,1,15943.43848,48409,1,1
13321,23,1336975,1,0,0,1,34,1,858.400391,1,-289.200134,1,-479.000214,0,0,1,-443.995483,1,-1216.187622,1,16285.63379,48256,1,1
13322,24,1337074,1,0,0,1,34,1,742.200317,1,-210.800079,1,-476.800201,0,0,1,-652.593384,1,-1861.780884,1,16545.23047,48153,1,1
13322,24,1337074,1,0,0,1,34,1,430.200165,1,-137.600052,1,-430.400146,0,0,1,-821.991638,1,-2020.779175,1,16926.62695,47974,1,1
13323,25,1337176,1,0,0,1,34,1,-33.60001,1,48.20002,1,-328.200165,0,0,1,-576.99408,1,-1835.181274,1,16947.22656,47692,1,1
13323,25,1337176,1,0,0,1,34,1,-448.400146,1,-46.20002,1,-288.400116,0,0,1,-380.796143,1,-1639.783325,1,16306.0332,47462,1,2
13324,26,1337275,1,0,0,1,34,1,-729.600342,1,-175.600082,1,-247.800125,0,0,1,-51.599472,1,-1408.785767,1,16054.4375,47232,1,1
13324,26,1337275,1,0,0,1,34,1,-848.000366,1,-224.600098,1,-223.200089,0,0,1,-306.196869,1,-1427.385498,1,16139.83496,93772,2,1
13325,27,1337374,1,0,0,1,34,1,-736.200378,1,-366.000153,1,-153.400055,0,0,1,-329.196655,1,-1646.983154,1,16326.03516,46899,1,1
13325,27,1337374,1,0,0,1,34,1,-521.000244,1,-398.800171,1,-146.800064,0,0,1,-478.995117,1,-1710.58252,1,16709.83008,46899,1,1
13326,28,1337475,1,0,0,1,34,1,-45.800018,1,-239.400101,1,-187.600082,0,0,1,-1027.989502,1,-2079.378662,1,17100.82617,47027,1,1
13326,28,1337475,1,0,0,1,34,1,375.80011,1,-21.800011,1,-267.600098,0,0,1,-722.392578,1,-2443.774902,1,16579.23047,47078,1,1
13327,29,1337575,1,0,0,1,34,1,485.200195,1,84.000038,1,-292.400146,0,0,1,-990.789917,1,-2769.571533,1,16398.43164,47052,1,1
13327,29,1337575,1,0,0,1,34,1,316.200134,1,436.000183,1,-229.200089,0,0,1,-604.593811,1,-3069.768555,1,16428.0332,47334,1,1
13328,30,1337673,1,0,0,1,34,1,-43.20002,1,511.800201,1,-204.80011,0,0,1,-531.19458,1,-3042.569092,1,16098.43457,47206,1,1
13328,30,1337673,1,0,0,1,34,1,-389.600128,1,278.000122,1,-146.800064,0,0,1,-267.197266,1,-3344.365479,1,16051.63672,47257,1,1
13329,31,1337775,1,0,0,1,34,1,-704.600281,1,299.200134,1,-211.800079,0,0,1,-912.190735,1,-2953.569824,1,16167.03418,47436,1,1
13329,31,1337775,1,0,0,1,34,1,-810.200317,1,490.400177,1,-239.000092,0,0,1,-83.199142,1,-2992.369385,1,16707.83008,47334,1,1
13330,32,1337871,1,0,0,1,34,1,-771.200317,1,238.800079,1,-241.400101,0,0,1,-358.996338,1,-2640.373047,1,16349.0332,47462,1,1
13330,32,1337871,1,0,0,1,34,1,-553.800232,1,424.400177,1,-252.000107,0,0,1,-925.190613,1,-2903.370361,1,15960.83691,47718,1,1
13331,33,1337974,1,0,0,1,34,1,-269.000092,1,841.600342,1,-285.000122,0,0,1,-724.792603,1,-2690.372559,1,16305.03223,47923,1,1
13331,33,1337974,1,0,0,1,34,1,26.20001,1,878.40033,1,-301.000153,0,0,1,-187.598083,1,-2659.373047,1,16311.43457,48102,1,1
13332,34,1338074,1,0,0,1,34,1,147.600067,1,400.600189,1,-239.800095,0,0,1,666.393188,1,-2771.97168,1,16234.23438,48204,1,1
13332,34,1338074,1,0,0,1,34,1,213.000092,1,-43.000019,1,-200.000076,0,0,1,373.996216,1,-2923.169922,1,16032.63574,48409,1,1
13333,35,1338176,1,0,0,1,34,1,255.000122,1,-215.600098,1,-155.600082,0,0,1,379.996094,1,-2935.969971,1,16077.23633,48742,1,2
13333,35,1338176,1,0,0,1,34,1,256.400146,1,-159.000061,1,-59.400028,0,0,1,-223.197754,1,-2831.171387,1,15333.24316,48793,1,1
13334,36,1338273,1,0,0,1,34,1,233.80011,1,0.200001,1,-70.200027,0,0,1,-1065.189087,1,-3006.569092,1,15831.83789,48947,1,1
13334,36,1338273,1,0,0,1,34,1,-43.800018,1,428.000183,1,-234.000107,0,0,1,-1230.787354,1,-3006.569092,1,15649.24023,98226,2,1
13335,37,1338373,1,0,0,1,34,1,-159.600067,1,622.000244,1,-295.600159,0,0,1,-276.197174,1,-3076.368652,1,16454.83203,49382,1,1
13335,37,1338373,1,0,0,1,34,1,-195.000092,1,534.000244,1,-236.800079,0,0,1,168.998276,1,-3141.36792,1,16654.23047,49510,1,1
13336,38,1338471,1,0,0,1,34,1,-110.400047,1,215.000107,1,-35.200016,0,0,1,884.390869,1,-2600.773438,1,16520.43164,49740,1,1
13336,38,1338471,1,0,0,1,34,1,76.400032,1,-420.200226,1,84.600037,0,0,1,780.792053,1,-2934.369873,1,16364.43262,50099,1,1
13337,39,1338572,1,0,0,1,34,1,23.200008,1,-542.60022,1,12.000005,0,0,1,110.798874,1,-2770.97168,1,15674.24121,50099,1,1
13337,39,1338572,1,0,0,1,34,1,-168.40007,1,-391.200134,1,-117.000053,0,0,1,-608.593811,1,-3368.56543,1,16572.43164,50176,1,1
13338,40,1338675,1,0,0,1,34,1,-297.80014,1,-134.600052,1,-223.000092,0,0,1,-1178.388062,1,-3156.567627,1,16440.83008,50457,1,1
13338,40,1338675,1,0,0,1,34,1,-461.200195,1,267.200073,1,-293.400146,0,0,1,-568.394165,1,-3174.967529,1,16644.83008,50508,1,1
13339,41,1338775,1,0,0,1,34,1,-494.200195,1,397.600159,1,-252.000107,0,0,1,145.198517,1,-3021.569336,1,16859.0293,0,0,1
13339,41,1338775,1,0,0,1,34,1,-458.400177,1,316.200134,1,-283.000122,0,0,1,31.99967,1,-3152.767578,1,16990.22852,50867,1,1
13340,42,1338871,1,0,0,1,34,1,-509.60022,1,411.200134,1,-251.600098,0,0,1,762.1922,1,-3267.366211,1,16190.23438,50995,1,0
13340,42,1338871,1,0,0,1,34,1,-745.600281,1,106.200043,1,-259.800079,0,0,1,399.195923,1,-3011.969238,1,17129.22656,51353,1,1
13341,43,1338974,1,0,0,1,34,1,-922.400391,1,-108.600037,1,-364.80014,0,0,1,117.998787,1,-3602.963135,1,16327.03418,51379,1,1
13341,43,1338974,1,0,0,1,34,1,-1033.200439,1,-280.600128,1,-442.200165,0,0,1,706.992859,1,-2461.974854,1,16429.23242,51507,1,1
13342,44,1339072,1,0,0,1,34,1,-820.800293,1,-264.200104,1,-520.600159,0,0,1,523.394653,1,-2352.776123,1,15618.83984,51788,1,1
13342,44,1339072,1,0,0,1,34,1,-442.400177,1,-208.200089,1,-559.000244,0,0,1,868.390991,1,-2458.574707,1,14976.64648,52121,1,1
13343,45,1339170,1,0,0,1,34,1,-75.400032,1,-409.000183,1,-521.400208,0,0,1,444.195435,1,-2249.176758,1,15321.64356,52659,1,1
13343,45,1339170,1,0,0,1,34,1,383.80014,1,-393.800171,1,-564.60022,0,0,1,408.395874,1,-2727.771973,1,15385.24414,53043,1,1
13344,46,1339273,1,0,0,1,34,1,686.600281,1,-350.200134,1,-630.600281,0,0,1,-285.597076,1,-3135.967773,1,15420.64258,53478,1,1
13344,46,1339273,1,0,0,1,34,1,945.000366,1,-165.800079,1,-678.200256,0,0,1,-38.599606,1,-2998.968994,1,16251.03516,53760,1,1
13345,47,1339371,1,0,0,1,34,1,1218.600464,1,-124.000061,1,-607.200256,0,0,1,364.196259,1,-3294.366211,1,16076.4375,54323,1,1
13345,47,1339371,1,0,0,1,34,1,1208.000488,1,-179.600082,1,-574.60022,0,0,1,307.796875,1,-3404.965088,1,15646.63965,54707,1,1
13346,48,1339476,1,0,0,1,34,1,957.400452,1,-286.200134,1,-533.60022,0,0,1,257.997345,1,-3738.961914,1,15656.24121,55040,1,1
13346,48,1339476,1,0,0,1,34,1,512.60022,1,-284.400116,1,-513.60022,0,0,1,226.797684,1,-3740.561523,1,15655.43945,55423,1,1
13347,49,1339573,1,0,0,1,34,1,11.200002,1,-503.60022,1,-525.200195,0,0,1,528.794617,1,-3593.363281,1,16309.43359,0,0,1
13347,49,1339573,1,0,0,1,34,1,-316.400177,1,-596.60022,1,-537.200256,0,0,1,-194.598022,1,-3452.764648,1,15910.4375,55398,1,0
13348,50,1339673,1,0,0,1,34,1,-286.000122,1,-316.400116,1,-584.800232,0,0,1,-60.999367,1,-3099.568604,1,16095.03613,55731,1,1
13348,50,1339673,1,0,0,1,34,1,-118.200058,1,-156.200058,1,-611.000244,0,0,1,-414.595734,1,-2830.570801,1,16247.83398,56115,1,1
13349,51,1339771,1,0,0,1,34,1,47.400021,1,-34.000011,1,-628.000244,0,0,1,73.399239,1,-2754.371826,1,16126.43359,56319,1,1
13349,51,1339771,1,0,0,1,34,1,177.800079,1,-144.800064,1,-611.60022,0,0,1,258.997345,1,-3074.168701,1,16372.03223,56959,1,1
13350,52,1339870,1,0,0,1,34,1,171.200058,1,-97.200043,1,-627.600281,0,0,1,16.999825,1,-3216.367188,1,15898.23926,57164,1,1
13350,52,1339870,1,0,0,1,34,1,79.800034,1,-20.00001,1,-668.800293,0,0,1,711.392822,1,-2573.973633,1,16055.63574,57471,1,1
13351,53,1339974,1,0,0,1,34,1,53.000023,1,-463.600189,1,-628.600281,0,0,1,10.19989,1,-2970.369629,1,16283.43359,0,0,1
13351,53,1339974,1,0,0,1,34,1,33.000015,1,-350.80014,1,-596.60022,0,0,1,-338.196564,1,-3143.167969,1,15671.83984,57600,1,0
13352,54,1340072,1,0,0,1,34,1,-108.600052,1,41.20002,1,-656.200317,0,0,1,-875.591064,1,-2799.571289,1,16119.43457,57830,1,1
13352,54,1340072,1,0,0,1,34,1,-220.800079,1,446.800201,1,-692.600342,0,0,1,-397.595917,1,-2912.770264,1,16261.83301,58137,1,1
13353,55,1340173,1,0,0,1,34,1,-289.80011,1,542.60022,1,-761.800293,0,0,1,36.999634,1,-2431.175049,1,15253.64453,58547,1,1
13353,55,1340173,1,0,0,1,34,1,-178.800079,1,578.200195,1,-809.200317,0,0,1,747.192383,1,-2651.372803,1,15611.24023,58854,1,1
13354,56,1340273,1,0,0,1,34,1,22.800011,1,406.600159,1,-853.40033,0,0,1,1075.989014,1,-2647.172852,1,16125.23438,59110,1,1
13354,56,1340273,1,0,0,1,34,1,182.800079,1,215.400101,1,-898.200378,0,0,1,1482.584839,1,-2423.175049,1,15844.83984,59417,1,1
13355,57,1340373,1,0,0,1,34,1,424.200165,1,-304.000122,1,-847.400391,0,0,1,1020.389587,1,-2817.371338,1,16033.23633,0,0,0
13355,57,1340373,1,0,0,1,34,1,466.200195,1,-475.200226,1,-842.600403,0,0,1,474.995148,1,-2571.173828,1,15707.03906,59904,1,1
13356,58,1340471,1,0,0,1,34,1,588.60022,1,-482.200226,1,-894.000366,0,0,1,768.992126,1,-2646.9729,1,16157.23535,60236,1,1
13356,58,1340471,1,0,0,1,34,1,689.000305,1,-631.200256,1,-1060.400513,0,0,1,-66.799339,1,-2962.569824,1,16000.03516,60646,1,1
13357,59,1340573,1,0,0,1,34,1,656.400269,1,-372.600159,1,-1116.600586,0,0,1,-734.79248,1,-3116.968018,1,16428.63086,60979,1,1
13357,59,1340573,1,0,0,1,34,1,310.400146,1,421.000214,1,-1080.000488,0,0,1,-533.19458,1,-3098.568115,1,16202.43457,61056,1,1
13358,60,1340671,1,0,0,1,34,1,-119.600044,1,700.200256,1,-995.200378,0,0,1,426.995667,1,-2521.174316,1,15944.23828,0,0,0
13358,60,1340671,1,0,0,1,34,1,-298.600159,1,248.000092,1,-906.200439,0,0,1,751.992371,1,-2334.576172,1,16386.63281,60953,1,1
13359,61,1340774,1,0,0,1,34,1,-303.80011,1,-25.600012,1,-942.400452,0,0,1,1069.389038,1,-1892.980591,1,15404.44336,61030,1,1
13359,61,1340774,1,0,0,1,34,1,-148.200058,1,-187.000092,1,-972.000427,0,0,1,816.791748,1,-1962.780029,1,15713.44141,61337,1,1
13360,62,1340872,1,0,0,1,34,1,121.200058,1,-238.200119,1,-975.000366,0,0,1,772.592102,1,-1428.385498,1,14892.84863,0,0,1
13360,62,1340872,1,0,0,1,34,1,443.200195,1,-376.000153,1,-940.800415,0,0,1,923.99054,1,-1556.984131,1,15127.84473,61619,1,0
13361,63,1340970,1,0,0,1,34,1,540.400269,1,-490.400238,1,-833.600281,0,0,1,-32.399658,1,-2063.578857,1,15192.04395,61568,1,1
13361,63,1340970,1,0,0,1,34,1,785.600403,1,-327.600159,1,-967.000366,0,0,1,-259.797333,1,-1866.781128,1,15867.6377,61593,1,1
13362,64,1341071,1,0,0,1,34,1,1044.800415,1,-41.000011,1,-1111.200439,0,0,1,-694.192932,1,-1947.980225,1,15956.23731,61849,1,1
13362,64,1341071,1,0,0,1,34,1,1228.400513,1,433.800171,1,-1182.800537,0,0,1,163.598328,1,-2418.175293,1,16443.63281,61824,1,1
13363,65,1341172,1,0,0,1,34,1,1128.400513,1,364.000153,1,-1051.800537,0,0,1,935.790344,1,-2228.177246,1,16705.03125,0,0,0
13363,65,1341172,1,0,0,1,34,1,924.000366,1,-63.600029,1,-941.600281,0,0,1,795.391907,1,-2906.570312,1,16278.23438,61926,1,1
13364,66,1341272,1,0,0,1,34,1,539.60022,1,-271.80011,1,-884.800354,0,0,1,1149.788208,1,-2287.57666,1,16182.03418,61977,1,1
13364,66,1341272,1,0,0,1,34,1,154.200089,1,-439.400208,1,-973.600403,0,0,1,422.795685,1,-2045.578979,1,15852.4375,61644,1,1
13365,67,1341370,1,0,0,1,34,1,-110.400047,1,-379.000122,1,-1082.400391,0,0,1,581.99408,1,-2246.976807,1,15032.84766,61414,1,1
13365,67,1341370,1,0,0,1,34,1,-107.600052,1,-467.200226,1,-1165.400513,0,0,1,58.399403,1,-1748.581909,1,15157.64453,61414,1,1
13366,68,1341473,1,0,0,1,34,1,9.000004,1,-310.600128,1,-1101.000488,0,0,1,-152.998428,1,-1816.781494,1,15314.04395,0,0,0
13366,68,1341473,1,0,0,1,34,1,250.400101,1,99.200043,1,-1025.200317,0,0,1,-110.798859,1,-1807.781494,1,15953.03613,61388,1,1
13367,69,1341572,1,0,0,1,34,1,439.400208,1,384.800171,1,-1080.000488,0,0,1,115.998817,1,-2278.376709,1,16091.23633,61388,1,1
13367,69,1341572,1,0,0,1,34,1,716.200256,1,325.80011,1,-1029.800415,0,0,1,561.394287,1,-2005.179443,1,16347.03418,61363,1,1
13368,70,1341676,1,0,0,1,34,1,982.200439,1,95.600037,1,-960.40033,0,0,1,915.590637,1,-2170.577881,1,16757.62891,0,0,1
13368,70,1341676,1,0,0,1,34,1,1020.2005,1,-61.600029,1,-1005.600464,0,0,1,418.195709,1,-2644.572998,1,16320.23438,61568,1,0
13369,71,1341772,1,0,0,1,34,1,829.000366,1,-16.200008,1,-1079.000488,0,0,1,377.196136,1,-2839.371094,1,16483.23047,61363,1,1
13369,71,1341772,1,0,0,1,34,1,336.200165,1,-24.400011,1,-1027.400513,0,0,1,696.792908,1,-2669.572754,1,16113.83594,61337,1,1
13370,72,1341869,1,0,0,1,34,1,-242.80011,1,-87.600037,1,-953.800354,0,0,1,113.398842,1,-2524.574219,1,16026.43652,60953,1,1
13370,72,1341869,1,0,0,1,34,1,-587.400269,1,-193.200089,1,-961.400513,0,0,1,854.991211,1,-2083.178711,1,15243.64453,60697,1,1
13371,73,1341973,1,0,0,1,34,1,-626.200317,1,-498.800201,1,-987.800415,0,0,1,307.796875,1,-2431.375,1,16272.23242,0,0,1
13371,73,1341973,1,0,0,1,34,1,-590.200256,1,-339.80014,1,-951.800415,0,0,1,469.995148,1,-1831.381226,1,15867.6377,60800,1,0
13372,74,1342071,1,0,0,1,34,1,-325.400116,1,-148.400055,1,-933.40033,0,0,1,212.797836,1,-2002.779541,1,16145.03613,60288,1,1
13372,74,1342071,1,0,0,1,34,1,-57.200024,1,-351.600128,1,-880.200378,0,0,1,-151.998459,1,-2104.378662,1,16177.83398,60390,1,1
13373,75,1342171,1,0,0,1,34,1,247.600128,1,-250.80011,1,-775.800354,0,0,1,-221.997742,1,-2164.977783,1,16252.03418,60569,1,1
13373,75,1342171,1,0,0,1,34,1,481.400238,1,-28.600012,1,-753.400269,0,0,1,-461.395294,1,-2331.776367,1,16703.82813,60697,1,1
13374,76,1342271,1,0,0,1,34,1,582.200256,1,144.000061,1,-731.200317,0,0,1,-447.795471,1,-2259.376709,1,15770.63867,0,0,0
13374,76,1342271,1,0,0,1,34,1,566.800293,1,343.000153,1,-758.800354,0,0,1,-137.398621,1,-2365.375977,1,16397.0332,60723,1,1
13375,77,1342371,1,0,0,1,34,1,329.600159,1,301.000092,1,-694.600281,0,0,1,721.792664,1,-2510.174316,1,15862.4375,60697,1,1
13375,77,1342371,1,0,0,1,34,1,54.000019,1,35.600018,1,-538.800232,0,0,1,725.392517,1,-2487.174561,1,16169.03418,60467,1,1
13376,78,1342470,1,0,0,1,34,1,-126.400055,1,-102.400032,1,-572.200256,0,0,1,843.59137,1,-2502.574463,1,16182.03613,60288,1,1
13376,78,1342470,1,0,0,1,34,1,-222.000092,1,-460.600159,1,-632.60022,0,0,1,329.996643,1,-2606.973389,1,16034.83691,60185,1,1
13377,79,1342573,1,0,0,1,34,1,-277.400116,1,-460.800201,1,-657.200256,0,0,1,124.19873,1,-2428.975342,1,16330.2334,0,0,0
13377,79,1342573,1,0,0,1,34,1,-209.800079,1,-333.200165,1,-643.800232,0,0,1,-471.795135,1,-2629.173096,1,16778.42773,60211,1,1
13378,80,1342671,1,0,0,1,34,1,-234.400101,1,-56.000023,1,-596.60022,0,0,1,-324.196716,1,-2459.375,1,16446.63086,60185,1,1
13378,80,1342671,1,0,0,1,34,1,-173.200073,1,-191.200089,1,-537.400208,0,0,1,178.798172,1,-2474.774658,1,16322.43262,60185,1,1
13379,81,1342769,1,0,0,1,34,1,-130.400055,1,-461.400208,1,-494.200195,0,0,1,-240.197556,1,-2215.577393,1,15815.6377,60211,1,1
13379,81,1342769,1,0,0,1,34,1,24.800011,1,-230.600098,1,-384.000153,0,0,1,-174.398239,1,-2572.973877,1,15944.83691,60339,1,1
13380,82,1342869,1,0,0,1,34,1,19.200008,1,-205.400101,1,-306.000122,0,0,1,-430.595581,1,-2260.976807,1,15388.04297,0,0,0
13380,82,1342869,1,0,0,1,34,1,187.000092,1,-246.600113,1,-272.80011,0,0,1,-152.59845,1,-2219.977295,1,15577.64063,60211,1,1
13381,83,1342972,1,0,0,1,34,1,357.400146,1,-417.800201,1,-234.80011,0,0,1,29.399693,1,-2367.775879,1,15650.63965,60364,1,1
13381,83,1342972,1,0,0,1,34,1,370.200165,1,-232.800095,1,-303.80014,0,0,1,-564.594238,1,-2546.174072,1,15999.03613,60467,1,1
13382,84,1343070,1,0,0,1,34,1,350.200165,1,168.40007,1,-380.000214,0,0,1,-820.391663,1,-2812.571289,1,16801.02734,60390,1,1
13382,84,1343070,1,0,0,1,34,1,388.200165,1,315.200134,1,-370.800171,0,0,1,-635.793518,1,-2755.371826,1,16544.43164,60441,1,1
13383,85,1343169,1,0,0,1,34,1,320.80014,1,125.000053,1,-205.40007,0,0,1,-7.199924,1,-2930.169922,1,16004.23731,0,0,0
13383,85,1343169,1,0,0,1,34,1,162.40007,1,-73.000023,1,-107.400047,0,0,1,13.79986,1,-2649.572754,1,15684.44141,60492,1,1
13384,86,1343273,1,0,0,1,34,1,119.800049,1,-140.200058,1,-154.000076,0,0,1,322.196716,1,-2452.774658,1,15756.43945,60339,1,1
13384,86,1343273,1,0,0,1,34,1,141.000076,1,-278.400116,1,-173.600052,0,0,1,-108.198898,1,-2614.773193,1,15855.03613,60492,1,1
13385,87,1343371,1,0,0,1,34,1,22.800011,1,-446.200226,1,-176.600067,0,0,1,-147.798508,1,-2933.170166,1,15954.63574,60416,1,1
13385,87,1343371,1,0,0,1,34,1,-201.400085,1,-433.400177,1,-155.600067,0,0,1,-103.198944,1,-2059.178955,1,15932.83789,60390,1,1
13386,88,1343471,1,0,0,1,34,1,-138.600052,1,-231.000092,1,-143.000061,0,0,1,-833.591553,1,-2929.77002,1,16394.63086,0,0,0
13386,88,1343471,1,0,0,1,34,1,22.400007,1,-86.600044,1,-161.800064,0,0,1,-709.792725,1,-2222.577148,1,15624.44043,60518,1,1
13387,89,1343569,1,0,0,1,34,1,372.600159,1,-6.800003,1,-277.600098,0,0,1,-745.992371,1,-2593.973633,1,15944.63574,60441,1,1
13387,89,1343569,1,0,0,1,34,1,569.60022,1,114.200058,1,-259.400116,0,0,1,-419.395721,1,-2463.374756,1,15803.6377,60569,1,1
13388,90,1343673,1,0,0,1,34,1,623.200195,1,387.400146,1,-235.200119,0,0,1,-578.594055,1,-2562.973877,1,15645.23926,0,0,1
13388,90,1343673,1,0,0,1,34,1,445.200195,1,469.400177,1,-216.400101,0,0,1,-218.79776,1,-3076.768555,1,16339.03418,60748,1,0
13389,91,1343770,1,0,0,1,34,1,190.800079,1,337.600159,1,-214.40007,0,0,1,165.998322,1,-2667.572754,1,16010.23535,60723,1,1
13389,91,1343770,1,0,0,1,34,1,99.600044,1,141.000061,1,-224.200073,0,0,1,9.599906,1,-2775.971436,1,16237.63379,60544,1,1
13390,92,1343873,1,0,0,1,34,1,141.200058,1,157.800079,1,-257.200104,0,0,1,177.998199,1,-2545.573975,1,15780.23926,60364,1,1
13390,92,1343873,1,0,0,1,34,1,178.000092,1,63.400028,1,-258.400116,0,0,1,282.597137,1,-2277.376709,1,15297.44336,60620,1,1
13391,93,1343972,1,0,0,1,34,1,338.80011,1,-117.000053,1,-265.400116,0,0,1,112.198845,1,-2502.974365,1,15837.83887,0,0,1
13391,93,1343972,1,0,0,1,34,1,330.200134,1,-11.200005,1,-316.600128,0,0,1,14.999846,1,-3017.569092,1,16190.23438,60595,1,0
13392,94,1344072,1,0,0,1,34,1,244.600113,1,19.00001,1,-362.400146,0,0,1,1011.589722,1,-2664.172852,1,16472.03125,60646,1,1
13392,94,1344072,1,0,0,1,34,1,88.800034,1,-480.400208,1,-460.600159,0,0,1,367.796234,1,-2832.971191,1,15850.6377,60390,1,1
13393,95,1344169,1,0,0,1,34,1,58.000023,1,-354.80014,1,-591.600281,0,0,1,570.594177,1,-2393.575439,1,16413.43164,60492,1,1
13393,95,1344169,1,0,0,1,34,1,236.200089,1,-219.600098,1,-699.400269,0,0,1,236.397598,1,-2711.772217,1,16140.63672,60518,1,1
13394,96,1344270,1,0,0,1,34,1,322.80014,1,-148.400055,1,-766.000366,0,0,1,617.393677,1,-2897.770508,1,16408.03125,0,0,1
13394,96,1344270,1,0,0,1,34,1,212.200089,1,-371.200134,1,-812.800354,0,0,1,439.59552,1,-2929.77002,1,16291.63281,60672,1,0
13395,97,1344371,1,0,0,1,34,1,-105.000038,1,-315.400146,1,-876.400391,0,0,1,367.39624,1,-2898.970215,1,15837.43848,60416,1,1
13395,97,1344371,1,0,0,1,34,1,-380.600128,1,-206.600067,1,-911.600403,0,0,1,74.999245,1,-2709.572266,1,16362.03125,60313,1,1
13396,98,1344471,1,0,0,1,34,1,-515.400208,1,-219.600082,1,-911.200378,0,0,1,86.999115,1,-2819.371338,1,16299.63281,60236,1,1
13396,98,1344471,1,0,0,1,34,1,-336.400146,1,-317.80014,1,-818.000305,0,0,1,735.592468,1,-2452.374756,1,16598.23047,60313,1,1
13397,99,1344571,1,0,0,1,34,1,-222.200089,1,-504.800232,1,-619.400208,0,0,1,354.996338,1,-2709.772217,1,16253.03516,0,0,1
13397,99,1344571,1,0,0,1,34,1,-211.200089,1,-551.000244,1,-610.800293,0,0,1,-41.599575,1,-2794.971436,1,16494.23047,60339,1,0
13398,100,1344668,1,0,0,1,34,1,-367.000153,1,-505.000244,1,-699.000305,0,0,1,-657.993286,1,-2963.169922,1,15949.03809,60364,1,1
13398,100,1344668,1,0,0,1,34,1,-438.800171,1,-431.000183,1,-670.200317,0,0,1,664.193237,1,-2162.977783,1,15788.04004,59929,1,1
13399,101,1344773,1,0,0,1,34,1,-156.800064,1,-868.800415,1,-649.000305,0,0,1,-214.397797,1,-2456.775146,1,15999.83594,60595,1,1
13399,101,1344773,1,0,0,1,34,1,28.600012,1,-668.200256,1,-590.800232,0,0,1,72.799263,1,-2357.375977,1,16127.63574,60339,1,1
13400,102,1344872,1,0,0,1,34,1,156.000076,1,-547.400208,1,-592.600281,0,0,1,-507.394806,1,-2790.171387,1,16319.83398,0,0,1
13400,102,1344872,1,0,0,1,34,1,105.200043,1,-355.000183,1,-609.600281,0,0,1,-705.592773,1,-2828.571045,1,16074.23535,60441,1,0
13401,103,1344969,1,0,0,1,34,1,56.400017,1,-252.000107,1,-655.800293,0,0,1,-223.997711,1,-2620.973145,1,16184.63281,60364,1,1
13401,103,1344969,1,0,0,1,34,1,-30.000011,1,-123.600067,1,-660.200256,0,0,1,-506.594849,1,-2779.371582,1,16208.83496,60467,1,1
13402,104,1345072,1,0,0,1,34,1,2.800001,1,-61.000019,1,-658.200256,0,0,1,-96.799011,1,-2383.375732,1,16340.63379,60416,1,1
13402,104,1345072,1,0,0,1,34,1,101.40004,1,33.600014,1,-720.40033,0,0,1,130.598663,1,-2307.376465,1,16285.83301,60467,1,1
13403,105,1345171,1,0,0,1,34,1,107.600037,1,-323.80011,1,-595.800232,0,0,1,557.794189,1,-2817.371338,1,15877.03711,0,0,0
13403,105,1345171,1,0,0,1,34,1,-118.400055,1,-577.600281,1,-461.200195,0,0,1,165.798309,1,-2413.175537,1,15456.64258,60569,1,1
13404,106,1345271,1,0,0,1,34,1,-212.600098,1,-735.000305,1,-424.600159,0,0,1,-127.598701,1,-2268.177002,1,16568.03125,60339,1,1
13404,106,1345271,1,0,0,1,34,1,-186.40007,1,-544.000183,1,-523.000244,0,0,1,-942.990417,1,-2338.576172,1,16932.02734,60288,1,1
13405,107,1345369,1,0,0,1,34,1,-174.400055,1,-342.600128,1,-558.200195,0,0,1,-1517.984375,1,-2981.56958,1,16207.43457,59878,1,1
13405,107,1345369,1,0,0,1,34,1,-144.600067,1,-90.600044,1,-513.000183,0,0,1,-866.591187,1,-2445.975098,1,16379.0332,60057,1,1
13406,108,1345471,1,0,0,1,34,1,-189.200073,1,96.800041,1,-434.600189,0,0,1,-989.989868,1,-2417.175293,1,16884.22656,0,0,0
13406,108,1345471,1,0,0,1,34,1,-258.400116,1,234.000107,1,-336.200134,0,0,1,-278.397125,1,-2508.574219,1,16488.83398,60134,1,1
13407,109,1345571,1,0,0,1,34,1,-376.400146,1,-18.600004,1,-284.000122,0,0,1,181.998123,1,-2477.974854,1,16172.43555,59904,1,1
13407,109,1345571,1,0,0,1,34,1,-490.400177,1,-639.600281,1,-195.800064,0,0,1,458.395294,1,-3338.365967,1,18047.21484,59980,1,1
13408,110,1345670,1,0,0,1,34,1,-936.600403,1,-642.400269,1,-287.800171,0,0,1,-1357.986084,1,-1621.18335,1,15481.24219,58803,1,1
13408,110,1345670,1,0,0,1,34,1,-726.000366,1,-4.000003,1,-205.600098,0,0,1,-841.59137,1,-2284.376709,1,16348.63379,60364,1,1
13409,111,1345773,1,0,0,1,34,1,-697.400269,1,-177.200073,1,-323.200134,0,0,1,-1105.788696,1,-1785.581787,1,14808.64844,0,0,1
13409,111,1345773,1,0,0,1,34,1,-131.600067,1,-45.000019,1,-301.200134,0,0,1,-1311.986572,1,-2102.378662,1,15528.04199,59110,1,0
13410,112,1345870,1,0,0,1,34,1,109.40004,1,386.600159,1,-287.80014,0,0,1,-357.996338,1,-1815.981323,1,15829.6377,59801,1,1
13410,112,1345870,1,0,0,1,34,1,471.200165,1,427.800171,1,-262.200104,0,0,1,-743.392395,1,-2410.775391,1,15921.83594,60108,1,1
13411,113,1345969,1,0,0,1,34,1,575.200256,1,280.400116,1,-209.400085,0,0,1,238.997574,1,-2226.377197,1,16427.63086,59827,1,1
13411,113,1345969,1,0,0,1,34,1,629.200256,1,-129.400055,1,-189.600082,0,0,1,227.797684,1,-2504.774414,1,16644.63086,59980,1,1
13412,114,1346069,1,0,0,1,34,1,798.000366,1,-495.800201,1,-18.000008,0,0,1,-786.991943,1,-2647.373291,1,17188.625,0,0,1
13412,114,1346069,1,0,0,1,34,1,846.600281,1,-96.400024,1,-229.800079,0,0,1,-517.794678,1,-2372.375732,1,15802.83789,59980,1,0
13413,115,1346174,1,0,0,1,34,1,279.200104,1,-180.000076,1,-258.000122,0,0,1,-1178.787964,1,-3533.563965,1,16516.43164,60185,1,1
13413,115,1346174,1,0,0,1,34,1,-327.000122,1,249.200104,1,-237.200089,0,0,1,-1452.585205,1,-2370.97583,1,15559.24121,59699,1,1
13414,116,1346269,1,0,0,1,34,1,-537.400208,1,287.400116,1,-122.800056,0,0,1,-892.790833,1,-2795.171631,1,16046.83594,59673,1,1
13414,116,1346269,1,0,0,1,34,1,-702.000305,1,425.200195,1,-149.600067,0,0,1,-679.393066,1,-2522.574219,1,16229.23438,59596,1,1
13415,117,1346373,1,0,0,1,34,1,-707.200256,1,513.800232,1,-182.400085,0,0,1,-745.992371,1,-2117.178467,1,16209.83398,0,0,1
13415,117,1346373,1,0,0,1,34,1,-441.800201,1,239.600098,1,-118.000053,0,0,1,-281.197113,1,-2101.978516,1,16910.62695,59238,1,0
13416,118,1346470,1,0,0,1,34,1,-164.600082,1,203.400101,1,-21.600012,0,0,1,-943.590393,1,-2507.574219,1,16225.23535,59545,1,1
13416,118,1346470,1,0,0,1,34,1,7.800004,1,86.200035,1,94.200035,0,0,1,-572.194153,1,-2292.776611,1,16736.42773,59596,1,1
13417,119,1346571,1,0,0,1,34,1,79.400032,1,-54.80003,1,169.600082,0,0,1,-1274.386963,1,-2395.575439,1,16269.63281,59724,1,1
13417,119,1346571,1,0,0,1,34,1,45.400017,1,-43.400021,1,249.000107,0,0,1,-1738.782227,1,-2552.374023,1,16123.03516,59622,1,1
13418,120,1346671,1,0,0,1,34,1,-44.600018,1,377.800171,1,331.800171,0,0,1,-1848.381226,1,-2442.975098,1,15661.63965,0,0,1
13418,120,1346671,1,0,0,1,34,1,-117.400055,1,537.400208,1,401.800201,0,0,1,-1495.78479,1,-2218.7771,1,15279.24414,59647,1,0
13419,121,1346769,1,0,0,1,34,1,-169.800079,1,579.800232,1,441.400208,0,0,1,-1287.986938,1,-2172.37793,1,15808.43848,59545,1,1
13419,121,1346769,1,0,0,1,34,1,13.800008,1,604.000244,1,503.000183,0,0,1,-734.192505,1,-2195.977539,1,15227.84375,59545,1,1
13420,122,1346870,1,0,0,1,34,1,237.000122,1,512.60022,1,535.60022,0,0,1,-666.793152,1,-2419.575195,1,15972.63672,59673,1,1
13420,122,1346870,1,0,0,1,34,1,515.200195,1,354.200134,1,540.400269,0,0,1,-434.395569,1,-2504.574463,1,15976.23633,59801,1,1
13421,123,1346970,1,0,0,1,34,1,734.400391,1,150.600052,1,574.600281,0,0,1,-345.796478,1,-2949.969727,1,16238.43555,0,0,1
13421,123,1346970,1,0,0,1,34,1,768.800354,1,32.000011,1,582.200256,0,0,1,-998.589844,1,-2938.769775,1,16509.63086,59980,1,0
13422,124,1347069,1,0,0,1,34,1,703.800293,1,307.600128,1,521.200256,0,0,1,-1563.583984,1,-3361.565674,1,16483.63281,60211,1,1
13422,124,1347069,1,0,0,1,34,1,508.600189,1,462.000214,1,462.600159,0,0,1,-1452.185181,1,-3507.364014,1,16781.42773,60211,1,1
13423,125,1347175,1,0,0,1,34,1,127.800064,1,537.600281,1,517.000183,0,0,1,-912.390747,1,-3137.367676,1,15628.44141,60800,1,1
13423,125,1347175,1,0,0,1,34,1,-116.20005,1,376.400146,1,631.800293,0,0,1,-1194.387817,1,-3620.363037,1,15705.43945,60467,1,1
13424,126,1347268,1,0,0,1,34,1,-361.200165,1,228.600082,1,792.800293,0,0,1,7.199933,1,-2587.773682,1,15549.6416,0,0,1
13424,126,1347268,1,0,0,1,34,1,-357.200134,1,-107.400047,1,858.000366,0,0,1,-1168.388184,1,-2856.570801,1,15665.4375,60339,1,0
13425,127,1347369,1,0,0,1,34,1,-272.000122,1,-263.000092,1,986.600403,0,0,1,-1248.187256,1,-2883.370605,1,16099.63574,60134,1,1
13425,127,1347369,1,0,0,1,34,1,-192.200089,1,-151.200073,1,981.400452,0,0,1,-1309.986572,1,-2531.574219,1,16137.83398,60851,1,1
13426,128,1347471,1,0,0,1,34,1,56.800022,1,-95.600044,1,946.400452,0,0,1,-2022.379395,1,-2479.574707,1,15484.44141,60953,1,1
13426,128,1347471,1,0,0,1,34,1,394.400208,1,95.800041,1,829.400391,0,0,1,-1391.785767,1,-3261.966553,1,16919.02539,61081,1,1
13427,129,1347570,1,0,0,1,34,1,456.000183,1,439.800201,1,726.600342,0,0,1,-1068.189087,1,-2774.771729,1,15834.03809,0,0,0
13427,129,1347570,1,0,0,1,34,1,654.800232,1,618.400269,1,812.000366,0,0,1,-1375.786011,1,-3216.166992,1,15468.04199,60928,1,1
13428,130,1347672,1,0,0,1,34,1,496.60022,1,439.400208,1,892.600403,0,0,1,-497.794922,1,-3051.368896,1,16260.43555,61824,1,1
13428,130,1347672,1,0,0,1,34,1,272.200104,1,124.800049,1,923.800354,0,0,1,-565.394226,1,-2741.172119,1,15542.44141,61772,1,1
13429,131,1347771,1,0,0,1,34,1,69.600029,1,162.000061,1,863.000366,0,0,1,-308.796814,1,-3420.565186,1,16391.83203,61695,1,1
13429,131,1347771,1,0,0,1,34,1,-150.800064,1,72.800026,1,766.40033,0,0,1,-722.992554,1,-2973.769775,1,16089.83594,61721,1,1
13430,132,1347871,1,0,0,1,34,1,-167.000076,1,121.000046,1,626.800232,0,0,1,-924.790466,1,-2883.970215,1,15764.83984,0,0,0
13430,132,1347871,1,0,0,1,34,1,-88.40004,1,138.400055,1,581.200256,0,0,1,-286.197083,1,-2681.172607,1,15721.64063,61824,1,1
13431,133,1347969,4,0,0,1,34,1,-18.000008,1,-22.000011,1,562.400269,0,0,1,-385.996033,1,-2725.172119,1,16838.82813,62028,1,1
13431,133,1347969,4,0,0,1,34,1,155.000061,1,125.800049,1,478.600159,0,0,1,-183.998123,1,-2999.169678,1,15729.83887,62208,1,1
13432,134,1348071,1,0,0,1,34,1,99.000038,1,9.600001,1,449.400177,0,0,1,-412.795776,1,-3116.968018,1,16578.23047,0,0,1
13432,134,1348071,1,0,0,1,34,1,41.400021,1,-81.400032,1,401.80014,0,0,1,-323.996704,1,-2630.173096,1,15993.83789,62336,1,0
13433,135,1348175,1,0,0,1,34,1,30.800014,1,-63.600021,1,288.600128,0,0,1,-494.794983,1,-2882.170898,1,15794.43945,62438,1,1
13433,135,1348175,1,0,0,1,34,1,58.000027,1,25.200006,1,202.000092,0,0,1,-600.993896,1,-2652.572998,1,15735.23926,62566,1,1
13434,136,1348269,1,0,0,1,34,1,143.400055,1,133.400055,1,124.400063,0,0,1,-539.994507,1,-3083.568604,1,15999.63672,62720,1,1
13434,136,1348269,1,0,0,1,34,1,168.000092,1,66.600029,1,124.800041,0,0,1,-349.596436,1,-2744.37207,1,15999.83594,62822,1,1
13435,137,1348371,1,0,0,1,34,1,97.400047,1,20.00001,1,170.000061,0,0,1,-180.398148,1,-2755.97168,1,15935.63672,0,0,0
13435,137,1348371,1,0,0,1,34,1,78.600029,1,-29.400009,1,217.800079,0,0,1,-344.396484,1,-3008.56958,1,16048.23633,63001,1,1
13436,138,1348470,1,0,0,1,34,1,82.200035,1,-120.800049,1,179.40007,0,0,1,-298.596954,1,-2708.772217,1,16180.03418,63001,1,1
13436,138,1348470,1,0,0,1,34,1,174.000076,1,-109.200043,1,104.000038,0,0,1,-883.590942,1,-3026.968994,1,16214.23438,63078,1,1
13437,139,1348567,1,0,0,1,34,1,236.80011,1,41.600018,1,8.600004,0,0,1,-651.993286,1,-2751.572021,1,16086.03613,0,0,1
13437,139,1348567,1,0,0,1,34,1,168.800064,1,170.000061,1,-3.000001,0,0,1,-521.594666,1,-2918.370117,1,16017.03613,63360,1,0
13438,140,1348670,1,0,0,1,34,1,107.000046,1,209.200089,1,45.600018,0,0,1,-407.195862,1,-2967.969727,1,15720.6377,63411,1,1
13438,140,1348670,1,0,0,1,34,1,23.000008,1,91.200035,1,95.800041,0,0,1,56.799419,1,-2813.171387,1,16066.63574,63539,1,1
13439,141,1348771,1,0,0,1,34,1,29.400013,1,-112.600052,1,83.200035,0,0,1,-138.798584,1,-2776.171631,1,15972.63574,0,0,1
13439,141,1348771,1,0,0,1,34,1,25.00001,1,-143.400055,1,28.800011,0,0,1,-222.597717,1,-2982.169678,1,15992.43652,63564,1,0
13440,142,1348870,1,0,0,1,34,1,19.600008,1,-100.400047,1,-17.400007,0,0,1,-441.59552,1,-2761.371826,1,16079.63574,63718,1,1
13440,142,1348870,1,0,0,1,34,1,24.600012,1,-94.200035,1,-54.600021,0,0,1,-444.395447,1,-2954.369873,1,16292.03418,63743,1,1
13441,143,1348967,1,0,0,1,34,1,1.000001,1,-60.000023,1,-55.400021,0,0,1,-471.795197,1,-2841.770996,1,16230.83398,63923,1,1
13441,143,1348967,1,0,0,1,34,1,-17.600008,1,57.200024,1,-86.600037,0,0,1,-316.596771,1,-2785.371338,1,16213.0332,63948,1,1
13442,144,1349070,1,0,0,1,34,1,-33.800014,1,129.200058,1,-152.200058,0,0,1,-419.795746,1,-2685.772461,1,16287.03418,0,0,0
13442,144,1349070,1,0,0,1,34,1,-85.200035,1,191.400085,1,-208.400085,0,0,1,-231.797623,1,-2492.574463,1,16008.23633,63974,1,1
13443,145,1349170,1,0,0,1,34,1,-141.000061,1,154.000076,1,-197.800079,0,0,1,-26.399727,1,-2356.375732,1,16144.83496,64000,1,1
13443,145,1349170,1,0,0,1,34,1,-171.200073,1,60.000023,1,-173.40007,0,0,1,-178.598175,1,-2435.975098,1,16046.63477,63948,1,1
13444,146,1349267,1,0,0,1,34,1,-258.400116,1,-6.200003,1,-179.200058,0,0,1,31.599672,1,-1679.382935,1,16218.63379,0,0,0
13444,146,1349267,1,0,0,1,34,1,-297.200134,1,-137.200073,1,-191.600082,0,0,1,-234.997604,1,-1417.185425,1,16268.23535,63513,1,1
13445,147,1349370,1,0,0,1,34,1,-286.200134,1,-186.000092,1,-176.400085,0,0,1,-294.197021,1,-1076.989014,1,16166.83398,63078,1,1
13445,147,1349370,1,0,0,1,34,1,-243.200104,1,-197.800079,1,-187.800095,0,0,1,-244.197479,1,-1122.588623,1,16297.83398,62720,1,1
13446,148,1349476,1,0,0,1,34,1,-168.200073,1,-163.40007,1,-215.000092,0,0,1,-281.597107,1,-939.790344,1,16278.43359,0,0,1
13446,148,1349476,1,0,0,1,34,1,-15.800005,1,-154.400055,1,-259.000122,0,0,1,-282.197113,1,-814.391724,1,16280.43555,62259,1,0
13447,149,1349574,1,0,0,1,34,1,121.400047,1,-73.000031,1,-331.400146,0,0,1,-120.59877,1,-1001.189819,1,16513.63086,61977,1,1
13447,149,1349574,1,0,0,1,34,1,142.600067,1,-44.800014,1,-381.600159,0,0,1,-108.798889,1,-1027.789429,1,16160.23633,61440,1,1
13448,150,1349668,1,0,0,1,34,1,165.000076,1,25.400007,1,-454.600189,0,0,1,-29.399702,1,-1025.589478,1,16410.43359,61004,1,1
13448,150,1349668,1,0,0,1,34,1,166.600067,1,74.400032,1,-550.600281,0,0,1,101.99897,1,-1143.388306,1,16179.63574,60467,1,1
13449,151,1349768,1,0,0,1,34,1,97.800034,1,112.20005,1,-622.200256,0,0,1,524.794678,1,-1054.189209,1,16524.83008,0,0,1
13449,151,1349768,1,0,0,1,34,1,8.400004,1,35.600014,1,-731.200317,0,0,1,432.595581,1,-1309.186646,1,16510.03125,59929,1,0
13450,152,1349870,1,0,0,1,34,1,-110.200043,1,-13.400006,1,-806.200317,0,0,1,351.996429,1,-1163.18811,1,16475.63086,59392,1,1
13450,152,1349870,1,0,0,1,34,1,-218.400085,1,-152.200058,1,-835.40033,0,0,1,364.996246,1,-1166.588135,1,16483.03125,58956,1,1
13451,153,1349967,1,0,0,1,34,1,-311.400116,1,-242.400101,1,-783.600342,0,0,1,-27.599716,1,-1156.988159,1,16468.03125,58444,1,1
13451,153,1349967,1,0,0,1,34,1,-266.600098,1,-255.400085,1,-696.200256,0,0,1,116.198814,1,-893.990784,1,16194.03613,58111,1,1
13452,154,1350066,1,0,0,1,34,1,-200.000076,1,-379.000183,1,-641.600281,0,0,1,-13.999862,1,-1100.388672,1,16055.83594,57676,1,1
13452,154,1350066,1,0,0,1,34,1,-116.000053,1,-441.200165,1,-640.200256,0,0,1,-300.796936,1,-929.590637,1,15966.4375,57267,1,1
13453,155,1350186,1,0,0,1,34,1,34.400013,1,-287.400116,1,-663.000305,0,0,1,16.999819,1,-1135.988281,1,15991.43652,0,0,1
13453,155,1350186,1,0,0,1,34,1,141.200058,1,-292.80011,1,-675.800232,0,0,1,-345.796448,1,-1216.387573,1,16373.23242,56985,1,0
13454,156,1350269,1,0,0,1,34,1,269.600128,1,-89.000038,1,-655.600281,0,0,1,-291.397034,1,-1490.584839,1,16276.43457,56780,1,1
13454,156,1350269,1,0,0,1,34,1,301.80011,1,-29.400013,1,-666.000305,0,0,1,-343.796509,1,-1425.985474,1,16355.23145,56550,1,1
13455,157,1350368,1,0,0,1,34,1,254.600113,1,86.200035,1,-676.400269,0,0,1,-390.796021,1,-1635.58313,1,16653.42969,56166,1,1
13455,157,1350368,1,0,0,1,34,1,236.200073,1,257.000122,1,-713.800293,0,0,1,-261.797333,1,-1548.984253,1,16262.03418,55884,1,1
13456,158,1350469,1,0,0,1,34,1,178.600082,1,260.600128,1,-684.40033,0,0,1,85.999123,1,-1579.983765,1,16347.43164,55680,1,1
13456,158,1350469,1,0,0,1,34,1,123.800049,1,170.40007,1,-639.600281,0,0,1,79.399193,1,-1814.781494,1,16086.63477,55372,1,1
13457,159,1350568,1,0,0,1,34,1,-18.800009,1,142.600052,1,-637.800232,0,0,1,403.195862,1,-1381.985962,1,15914.6377,55193,1,1
13457,159,1350568,1,0,0,1,34,1,-58.200024,1,-21.20001,1,-605.000244,0,0,1,246.797485,1,-1595.983643,1,16085.43555,54860,1,1
13458,160,1350672,1,0,0,1,34,1,-60.600029,1,-120.20005,1,-589.800293,0,0,1,417.19577,1,-1456.985107,1,15830.63867,0,0,0
13458,160,1350672,1,0,0,1,34,1,74.800034,1,-297.80011,1,-574.800232,0,0,1,-101.398956,1,-1813.781372,1,16272.63379,54656,1,1
13459,161,1350769,1,0,0,1,34,1,189.600082,1,-336.400146,1,-545.200256,0,0,1,-188.798065,1,-1600.383667,1,15966.43848,54348,1,1
13459,161,1350769,1,0,0,1,34,1,333.200165,1,-324.000122,1,-565.600281,0,0,1,-280.797119,1,-2191.577637,1,16408.43164,54169,1,1
13460,162,1350869,1,0,0,1,34,1,367.000153,1,-65.000031,1,-575.200256,0,0,1,-201.397934,1,-2209.177246,1,16176.83496,54246,1,1
13460,162,1350869,1,0,0,1,34,1,408.200165,1,91.40004,1,-568.200256,0,0,1,-452.395386,1,-2423.575195,1,16245.63379,54195,1,1
13461,163,1350966,1,0,0,1,34,1,372.800171,1,147.600052,1,-537.000183,0,0,1,-86.799118,1,-2446.375,1,16203.03418,54144,1,1
13461,163,1350966,1,0,0,1,34,1,259.600128,1,179.800079,1,-544.800232,0,0,1,-3.799956,1,-2374.975586,1,15788.23731,54195,1,1
13462,164,1351067,1,0,0,1,34,1,194.400085,1,68.200027,1,-489.200226,0,0,1,56.399422,1,-2692.772461,1,15950.83691,54041,1,1
13462,164,1351067,1,0,0,1,34,1,41.400017,1,-13.600007,1,-435.600159,0,0,1,251.197449,1,-2671.172607,1,15982.63672,53939,1,1
13463,165,1351170,1,0,0,1,34,1,13.200006,1,-151.600067,1,-390.80014,0,0,1,110.998871,1,-2416.375244,1,16096.63574,53811,1,1
13463,165,1351170,1,0,0,1,34,1,-24.600012,1,-259.600128,1,-371.600159,0,0,1,-77.199203,1,-2531.174316,1,16332.63184,53862,1,1
13464,166,1351272,1,0,0,1,34,1,-35.200012,1,-255.600113,1,-391.000153,0,0,1,-379.396118,1,-2575.173828,1,16151.23535,0,0,1
13464,166,1351272,1,0,0,1,34,1,37.600018,1,-195.40007,1,-355.400146,0,0,1,-478.395111,1,-2689.372314,1,16257.63281,53862,1,1
13465,167,1351366,1,0,0,1,34,1,48.20002,1,-196.200073,1,-279.400085,0,0,1,-482.995056,1,-2488.374512,1,16191.03418,53862,1,0
13465,167,1351366,1,0,0,1,34,1,70.800026,1,-154.40007,1,-202.000092,0,0,1,-522.794678,1,-2539.974121,1,15984.43652,53760,1,1
13466,168,1351470,1,0,0,1,34,1,48.20002,1,26.800013,1,-184.400085,0,0,1,-735.192444,1,-2549.374023,1,16165.23438,53836,1,1
13466,168,1351470,1,0,0,1,34,1,-14.800005,1,124.800064,1,-194.200089,0,0,1,-281.597107,1,-2620.373047,1,16037.83691,53785,1,1
13467,169,1351569,1,0,0,1,34,1,37.600018,1,-27.600012,1,-182.800079,0,0,1,-259.997345,1,-2675.772461,1,16313.63281,53836,1,1
13467,169,1351569,1,0,0,1,34,1,10.400005,1,-167.600067,1,-112.600052,0,0,1,-720.992615,1,-2501.574463,1,15838.03711,53836,1,1
13468,170,1351668,1,0,0,1,34,1,12.000005,1,-20.400009,1,-10.600004,0,0,1,-762.792175,1,-2554.573975,1,16280.43555,53811,1,1
13468,170,1351668,1,0,0,1,34,1,-24.800011,1,30.400013,1,95.000038,0,0,1,-578.794128,1,-2213.777344,1,16223.63379,53606,1,1
13469,171,1351770,1,0,0,1,34,1,-22.400009,1,-80.200027,1,120.000053,0,0,1,-633.393555,1,-2131.378418,1,16097.83594,53632,1,1
13469,171,1351770,1,0,0,1,34,1,-46.000019,1,-8.000004,1,70.400032,0,0,1,-615.793701,1,-1715.782471,1,15961.03613,53145,1,1
13470,172,1351868,1,0,0,1,34,1,-63.600021,1,94.600037,1,30.000011,0,0,1,-422.795685,1,-1713.982422,1,16400.23242,53248,1,1
13470,172,1351868,1,0,0,1,34,1,-91.200043,1,27.000013,1,-10.600005,0,0,1,-464.99527,1,-1486.984863,1,16093.63574,53171,1,1
13471,173,1351965,1,0,0,1,34,1,-82.40004,1,-25.400011,1,39.000019,0,0,1,-282.997101,1,-1555.583984,1,16373.83301,52915,1,1
13471,173,1351965,1,0,0,1,34,1,9.800005,1,-65.400032,1,73.800034,0,0,1,-515.594727,1,-1653.983154,1,16051.83496,52659,1,1
13472,174,1352068,1,0,0,1,34,1,108.800056,1,-97.600044,1,59.400028,0,0,1,-544.994446,1,-1670.382935,1,16131.23633,0,0,1
13472,174,1352068,1,0,0,1,34,1,161.40007,1,-163.40007,1,28.400011,0,0,1,-623.793579,1,-1667.783081,1,16299.23242,52454,1,1
13473,175,1352166,1,0,0,1,34,1,170.40007,1,-21.800013,1,36.000015,0,0,1,-685.993042,1,-2002.379639,1,16174.83594,52275,1,0
13473,175,1352166,1,0,0,1,34,1,103.000053,1,109.600044,1,83.400032,0,0,1,-520.594666,1,-1754.182129,1,16090.83594,52121,1,1
13474,176,1352266,1,0,0,1,34,1,88.000031,1,-5.200003,1,47.20002,0,0,1,-505.594818,1,-1786.581787,1,16233.63281,52044,1,1
13474,176,1352266,1,0,0,1,34,1,130.400055,1,-104.200043,1,56.000027,0,0,1,-332.196594,1,-1940.380127,1,15812.23828,51839,1,1
13475,177,1352368,1,0,0,1,34,1,104.600044,1,-73.200027,1,94.40004,0,0,1,-848.791321,1,-2037.979248,1,16166.63477,51712,1,1
13475,177,1352368,1,0,0,1,34,1,126.20005,1,-165.200073,1,85.800034,0,0,1,-561.794189,1,-1964.180176,1,16304.0332,51507,1,1
13476,178,1352468,1,0,0,1,34,1,51.000023,1,-127.600044,1,53.600025,0,0,1,-628.593567,1,-1968.579834,1,16137.03418,51353,1,1
13476,178,1352468,1,0,0,1,34,1,58.600025,1,-36.600014,1,72.000031,0,0,1,-710.192749,1,-1990.779541,1,16358.03223,51225,1,1
13477,179,1352565,1,0,0,1,34,1,63.600029,1,95.40004,1,16.000006,0,0,1,-921.790588,1,-2057.178955,1,16131.43555,51123,1,1
13477,179,1352565,1,0,0,1,34,1,66.000031,1,121.600052,1,21.600008,0,0,1,-315.596771,1,-1864.980835,1,16038.63477,51123,1,1
13478,180,1352667,1,0,0,1,34,1,71.600029,1,-7.400003,1,34.800014,0,0,1,-474.795135,1,-1897.78064,1,15842.23926,51046,1,1
13478,180,1352667,1,0,0,1,34,1,76.400032,1,-1.600001,1,30.400013,0,0,1,-323.396698,1,-2019.579346,1,16104.83496,50739,1,1
13479,181,1352765,1,0,0,1,34,1,116.400047,1,-29.200012,1,54.400028,0,0,1,-327.196655,1,-2050.979004,1,16188.03613,50611,1,1
13479,181,1352765,1,0,0,1,34,1,148.400055,1,29.600014,1,-12.800006,0,0,1,-313.996796,1,-1942.380127,1,16188.23535,50483,1,1
13480,182,1352871,1,0,0,1,34,1,159.800064,1,97.000046,1,-119.800049,0,0,1,-230.797653,1,-1890.380615,1,15951.63672,50380,1,1
13480,182,1352871,1,0,0,1,34,1,179.000076,1,-21.000008,1,-189.40007,0,0,1,-96.999001,1,-1854.380981,1,16217.83398,50201,1,1
13481,183,1352969,1,0,0,1,34,1,145.600052,1,18.200006,1,-257.200104,0,0,1,78.799202,1,-1713.782471,1,16282.03516,50022,1,1
13481,183,1352969,1,0,0,1,34,1,108.600037,1,-29.800013,1,-234.200104,0,0,1,-325.196655,1,-1963.380127,1,15762.63867,49868,1,1
13482,184,1353066,1,0,0,1,34,1,131.000046,1,-102.600052,1,-141.600052,0,0,1,39.399601,1,-1771.981934,1,16405.43359,49740,1,1
13482,184,1353066,1,0,0,1,34,1,69.200027,1,-274.80011,1,-184.000076,0,0,1,-54.199448,1,-1932.780273,1,16513.0332,49638,1,1
13483,185,1353175,1,0,0,1,34,1,-41.600018,1,-149.600067,1,-306.80011,0,0,1,-76.79921,1,-1684.38269,1,16116.63477,49408,1,1
13483,185,1353175,1,0,0,1,34,1,-26.400011,1,-6.600003,1,-456.000183,0,0,1,-131.998657,1,-1758.982178,1,16103.23535,49305,1,1
13484,186,1353268,1,0,0,1,34,1,-40.000019,1,-116.400047,1,-481.800171,0,0,1,34.399658,1,-1691.982788,1,15886.03711,49024,1,1
13484,186,1353268,1,0,0,1,34,1,5.000001,1,-77.800034,1,-454.800232,0,0,1,-287.99707,1,-1742.782227,1,16162.63574,48972,1,1
13485,187,1353368,1,0,0,1,34,1,50.400021,1,49.200024,1,-438.800171,0,0,1,-70.399277,1,-1702.582642,1,16130.23535,48716,1,1
13485,187,1353368,1,0,0,1,34,1,55.600025,1,-19.600006,1,-441.000153,0,0,1,-325.396667,1,-1909.78064,1,16451.63281,48665,1,1
13486,188,1353465,1,0,0,1,34,1,98.600037,1,-168.200073,1,-350.200165,0,0,1,-159.398392,1,-1847.781128,1,16385.43164,48409,1,1
13486,188,1353465,1,0,0,1,34,1,119.600052,1,-164.200058,1,-262.600098,0,0,1,-421.595673,1,-1849.181274,1,16187.63477,48230,1,1
13487,189,1353569,1,0,0,1,34,1,129.800049,1,-178.800079,1,-195.40007,0,0,1,-446.395416,1,-1787.381592,1,16142.83594,48153,1,1
13487,189,1353569,1,0,0,1,34,1,115.800049,1,-255.600128,1,-223.200104,0,0,1,-658.193237,1,-1768.581787,1,16070.83594,48025,1,1
13488,190,1353673,1,0,0,1,34,1,29.000011,1,-48.400021,1,-276.400116,0,0,1,-431.795593,1,-1880.180786,1,16254.83398,47872,1,2
13488,190,1353673,1,0,0,1,34,1,12.200006,1,116.600052,1,-301.200134,0,0,1,-537.794556,1,-1825.581421,1,15720.03906,95385,2,1
13489,191,1353764,1,0,0,1,34,1,12.000005,1,130.000061,1,-273.000122,0,0,1,-255.3974,1,-1822.781372,1,16181.63574,47462,1,1
13489,191,1353764,1,0,0,1,34,1,72.400032,1,-27.600012,1,-257.600128,0,0,1,-157.998383,1,-1747.182129,1,16265.23535,47308,1,1
13490,192,1353868,1,0,0,1,34,1,159.000061,1,-80.200027,1,-228.800095,0,0,1,-87.799095,1,-1946.380127,1,16183.63574,47180,1,1
13490,192,1353868,1,0,0,1,34,1,151.400055,1,-73.000031,1,-233.80011,0,0,1,-300.996918,1,-1849.781128,1,16314.0332,47104,1,1
13491,193,1353967,1,0,0,1,34,1,137.400055,1,-58.400028,1,-232.000092,0,0,1,-276.79718,1,-1849.581177,1,16338.2334,47001,1,1
13491,193,1353967,1,0,0,1,34,1,86.800034,1,-102.400047,1,-221.200089,0,0,1,-196.197998,1,-2076.178711,1,15987.6377,46822,1,1
13492,194,1354066,1,0,0,1,34,1,32.800014,1,-116.400055,1,-247.600098,0,0,1,-323.996674,1,-2117.378418,1,16448.63086,46694,1,1
13492,194,1354066,1,0,0,1,34,1,-47.200016,1,-152.800064,1,-218.400085,0,0,1,-210.397842,1,-2005.579468,1,16133.83691,46591,1,1
13493,195,1354167,1,0,0,1,34,1,-47.20002,1,-268.000122,1,-185.600082,0,0,1,-328.796661,1,-2009.179443,1,16535.43164,46464,1,1
13493,195,1354167,1,0,0,1,34,1,-116.400047,1,-176.800064,1,-195.800095,0,0,1,-439.59552,1,-2084.178467,1,16101.83691,46387,1,1
13494,196,1354269,1,0,0,1,34,1,-134.600052,1,-37.800018,1,-254.400085,0,0,1,-562.394287,1,-2019.579346,1,16153.23535,46259,1,1
13494,196,1354269,1,0,0,1,34,1,-94.200035,1,23.400007,1,-258.200104,0,0,1,-356.596405,1,-1878.180786,1,16018.83691,46156,1,1
13495,197,1354370,1,0,0,1,34,1,-4.000002,1,-69.800034,1,-261.200104,0,0,1,-275.597168,1,-1847.181274,1,16231.83301,46080,1,1
13495,197,1354370,1,0,0,1,34,1,17.800009,1,-61.000019,1,-239.800125,0,0,1,-304.996857,1,-1967.780029,1,16202.83496,91724,2,2
13496,198,1354464,1,0,0,1,34,1,38.600018,1,-88.400032,1,-236.200089,0,0,1,-413.795776,1,-2043.979126,1,16251.83398,45772,1,1
13496,198,1354464,1,0,0,1,34,1,114.800049,1,-68.800026,1,-222.200089,0,0,1,-231.797623,1,-1859.380981,1,16388.63086,45670,1,1
13497,199,1354573,1,0,0,1,34,1,126.600052,1,-1.800001,1,-227.000107,0,0,1,-496.59491,1,-2108.978516,1,16299.63477,45593,1,1
13497,199,1354573,1,0,0,1,34,1,99.800041,1,60.400028,1,-260.400116,0,0,1,-357.396332,1,-2045.179077,1,16134.83594,45491,1,1
13498,200,1354666,1,0,0,1,34,1,26.400009,1,-96.40004,1,-255.600113,0,0,1,-275.997192,1,-2033.579346,1,16021.6377,45363,1,1
13498,200,1354666,1,0,0,1,34,1,-32.600014,1,-116.200058,1,-224.80011,0,0,1,-198.597977,1,-2035.379272,1,16292.83301,45235,1,1
13499,201,1354767,1,0,0,1,34,1,-33.800014,1,-38.200016,1,-201.400085,0,0,1,-316.796783,1,-2057.178955,1,16161.63477,45184,1,1
13499,201,1354767,1,0,0,1,34,1,-22.400009,1,-4.200002,1,-194.200089,0,0,1,-386.596039,1,-2039.779175,1,16049.4375,45132,1,1
13500,202,1354865,1,0,0,1,34,1,-60.200027,1,-7.800004,1,-199.800079,0,0,1,-498.994934,1,-1923.780273,1,16247.83398,45004,1,2
13500,202,1354865,1,0,0,1,34,1,-8.400007,1,14.400006,1,-247.400116,0,0,1,-391.196045,1,-2099.378662,1,16005.03711,89599,2,1
13501,203,1354967,1,0,0,1,34,1,75.800034,1,-63.000027,1,-248.000092,0,0,1,-283.397095,1,-1999.179443,1,16176.83398,44697,1,1
13501,203,1354967,1,0,0,1,34,1,55.800026,1,-68.200035,1,-205.400101,0,0,1,-303.19693,1,-2010.57959,1,16240.23242,44697,1,1
13502,204,1355067,1,0,0,1,34,1,51.800026,1,-21.20001,1,-196.200104,0,0,1,-289.797058,1,-2045.579224,1,16188.43457,44569,1,1
13502,204,1355067,1,0,0,1,34,1,19.800009,1,-17.200006,1,-210.600082,0,0,1,-344.196503,1,-1913.78064,1,16148.43457,44492,1,1
13503,205,1355173,1,0,0,1,34,1,81.800034,1,-73.200027,1,-232.600098,0,0,1,-558.79425,1,-2104.578613,1,16425.83008,44364,1,1
13503,205,1355173,1,0,0,1,34,1,7.800003,1,97.000031,1,-262.80011,0,0,1,-458.195343,1,-2125.77832,1,16060.03613,44236,1,1
13504,206,1355265,1,0,0,1,34,1,18.200008,1,70.200035,1,-247.600098,0,0,1,-284.597076,1,-1965.379883,1,16286.03418,44236,1,2
13504,206,1355265,1,0,0,1,34,1,-47.000019,1,8.600003,1,-235.000076,0,0,1,-129.198669,1,-1871.380737,1,16029.03711,88217,2,1
13505,207,1355363,1,0,0,1,34,1,35.600014,1,1.600001,1,-209.400085,0,0,1,-455.395355,1,-1982.179688,1,15828.03809,43929,1,1
13505,207,1355363,1,0,0,1,34,1,67.000031,1,43.000019,1,-207.000076,0,0,1,-294.396973,1,-2081.378662,1,16199.83496,43878,1,1
13506,208,1355468,1,0,0,1,34,1,77.600037,1,-78.000038,1,-200.000092,0,0,1,-436.595581,1,-2003.779541,1,16037.83691,43750,1,1
13506,208,1355468,1,0,0,1,34,1,102.800049,1,-27.200014,1,-214.200104,0,0,1,-546.594421,1,-1911.780396,1,16290.0332,43673,1,1
13507,209,1355567,1,0,0,1,34,1,172.200073,1,167.400085,1,-238.800125,0,0,1,-351.196381,1,-2101.778564,1,16256.63379,43622,1,1
13507,209,1355567,1,0,0,1,34,1,140.000046,1,156.200058,1,-223.800095,0,0,1,-439.59552,1,-2142.978027,1,15974.23633,43596,1,2
13508,210,1355670,1,0,0,1,34,1,136.200058,1,80.200027,1,-217.600082,0,0,1,-449.995422,1,-1990.779541,1,16100.63477,43519,1,1
13508,210,1355670,1,0,0,1,34,1,52.600021,1,74.600029,1,-183.200073,0,0,1,-449.79538,1,-2268.976562,1,16552.03125,86655,2,1
13509,211,1355765,1,0,0,1,34,1,-41.800014,1,-9.400004,1,-105.400047,0,0,1,-351.396454,1,-2076.578857,1,16347.03418,43161,1,1
13509,211,1355765,1,0,0,1,34,1,-23.800009,1,9.400003,1,-40.000019,0,0,1,-522.99469,1,-2163.578125,1,16176.43652,43161,1,1
13510,212,1355867,1,0,0,1,34,1,-76.200027,1,-10.800005,1,-23.60001,0,0,1,-434.795532,1,-2108.578369,1,15926.23633,43110,1,1
13510,212,1355867,1,0,0,1,34,1,-25.400007,1,3.000001,1,-54.20002,0,0,1,-549.394409,1,-1989.179688,1,16086.23633,43007,1,1
13511,213,1355966,1,0,0,1,34,1,12.600005,1,19.000008,1,-80.400032,0,0,1,-546.794434,1,-2065.97876,1,16080.03516,42956,1,2
13511,213,1355966,1,0,0,1,34,1,29.200012,1,35.800014,1,-72.200027,0,0,1,-506.594849,1,-2051.979004,1,16137.63672,85554,2,1
13512,214,1356070,1,0,0,1,34,1,101.40004,1,110.000046,1,-72.400032,0,0,1,-643.393433,1,-2016.579346,1,16074.43652,42751,1,1
13512,214,1356070,1,0,0,1,34,1,201.600082,1,177.800079,1,-39.400021,0,0,1,-479.795105,1,-1847.581177,1,15968.83691,42726,1,1
13513,215,1356167,1,0,0,1,34,1,254.80011,1,210.200089,1,-40.600018,0,0,1,-349.796448,1,-2229.977051,1,15934.63672,42675,1,1
13513,215,1356167,1,0,0,1,34,1,273.200104,1,95.40004,1,-36.000015,0,0,1,-508.7948,1,-2292.776611,1,16142.23438,42572,1,1
13514,216,1356265,1,0,0,1,34,1,120.600052,1,86.40004,1,-47.800022,0,0,1,-422.195709,1,-2225.177246,1,16472.03125,42444,1,2
13514,216,1356265,1,0,0,1,34,1,38.400017,1,87.600029,1,-35.200016,0,0,1,-312.796814,1,-2152.577881,1,16374.43359,84684,2,1
13515,217,1356368,1,0,0,1,34,1,24.00001,1,52.20002,1,-40.800018,0,0,1,-418.995697,1,-2090.578613,1,15930.63574,42265,1,1
13515,217,1356368,1,0,0,1,34,1,-64.000023,1,74.200027,1,-58.200016,0,0,1,-572.994141,1,-2226.7771,1,16050.43652,42163,1,1
13516,218,1356464,1,0,0,1,34,1,-113.200058,1,167.800064,1,-50.800022,0,0,1,-475.395172,1,-2127.978516,1,16180.83398,42060,1,1
13516,218,1356464,1,0,0,1,34,1,-138.400055,1,73.400032,1,-44.600021,0,0,1,-438.995483,1,-2089.97876,1,16321.03223,83890,2,2
13517,219,1356567,1,0,0,1,34,1,-47.800018,1,52.200027,1,-28.800013,0,0,1,-621.593628,1,-2189.177734,1,16445.23438,41881,1,1
13517,219,1356567,1,0,0,1,34,1,10.800004,1,182.200089,1,-12.800006,0,0,1,-425.995697,1,-2155.578125,1,16261.03516,41830,1,1
13518,220,1356664,1,0,0,1,34,1,32.200016,1,59.400032,1,20.000008,0,0,1,-410.195831,1,-2056.578857,1,16197.23242,41779,1,1
13518,220,1356664,1,0,0,1,34,1,13.800008,1,2.000001,1,64.200027,0,0,1,-469.795197,1,-2137.978271,1,15958.43555,41676,1,1
13519,221,1356768,1,0,0,1,34,1,25.400011,1,-88.40004,1,92.800034,0,0,1,-531.994568,1,-1964.379883,1,15950.23828,41651,1,2
13519,221,1356768,1,0,0,1,34,1,80.200035,1,-55.000023,1,118.800056,0,0,1,-552.594299,1,-2133.978271,1,16124.03613,83071,2,1
13520,222,1356865,1,0,0,1,34,1,86.000038,1,-53.000023,1,133.600052,0,0,1,-683.192993,1,-2231.977051,1,16399.23242,41471,1,1
13520,222,1356865,1,0,0,1,34,1,43.20002,1,-14.600006,1,104.600044,0,0,1,-556.194336,1,-2121.378418,1,16145.43555,41395,1,1
13521,223,1356968,1,0,0,1,34,1,71.200027,1,-131.000061,1,134.800064,0,0,1,-761.192139,1,-2114.378418,1,15971.6377,41318,1,1
13521,223,1356968,1,0,0,1,34,1,94.800041,1,-53.600025,1,142.400055,0,0,1,-452.195374,1,-2101.178711,1,16259.23438,82457,2,2
13522,224,1357065,1,0,0,1,34,1,42.800014,1,-65.000031,1,158.200058,0,0,1,-623.993591,1,-2191.577637,1,16022.83594,41139,1,1
13522,224,1357065,1,0,0,1,34,1,-22.00001,1,-90.600037,1,168.40007,0,0,1,-527.794617,1,-1873.980835,1,16165.63379,41036,1,1
13523,225,1357165,1,0,0,1,34,1,54.200027,1,-106.400047,1,163.40007,0,0,1,-526.394653,1,-2022.379395,1,15840.03906,40985,1,1
13523,225,1357165,1,0,0,1,34,1,143.000061,1,-222.000092,1,180.200073,0,0,1,-713.992676,1,-2141.378174,1,16432.43359,40934,1,2
13524,226,1357267,1,0,0,1,34,1,85.000038,1,-140.800064,1,195.000092,0,0,1,-958.790222,1,-2141.978027,1,16582.03125,40806,1,1
13524,226,1357267,1,0,0,1,34,1,17.200006,1,-103.40004,1,216.600082,0,0,1,-517.794678,1,-2072.178711,1,16136.43555,81459,2,1
13525,227,1357365,1,0,0,1,34,1,-9.400004,1,-291.80014,1,218.200089,0,0,1,-946.590393,1,-2115.77832,1,15997.23633,40652,1,1
13525,227,1357365,1,0,0,1,34,1,3.400001,1,-95.000038,1,239.000122,0,0,1,-675.793091,1,-2066.378906,1,16213.63379,40601,1,1
13526,228,1357464,1,0,0,1,34,1,8.400005,1,-122.800056,1,232.800095,0,0,1,-854.391296,1,-2073.378906,1,15747.83887,40499,1,2
13526,228,1357464,1,0,0,1,34,1,5.800002,1,-196.40007,1,257.000122,0,0,1,-1115.588623,1,-2023.179443,1,16362.43262,80767,2,1
13527,229,1357564,1,0,0,1,34,1,64.000023,1,68.400024,1,224.600098,0,0,1,-851.391296,1,-2079.578857,1,16579.83008,40345,1,1
13527,229,1357564,1,0,0,1,34,1,105.800041,1,19.800009,1,231.600098,0,0,1,-798.99176,1,-2147.978271,1,16338.83301,40294,1,1
13528,230,1357669,1,0,0,1,34,1,64.400024,1,-67.000031,1,238.800095,0,0,1,-1016.189636,1,-2087.578613,1,15797.23926,40166,1,2
13528,230,1357669,1,0,0,1,34,1,-4.800002,1,175.800064,1,207.600082,0,0,1,-627.993591,1,-1972.780029,1,15979.4375,80127,2,1
13529,231,1357768,1,0,0,1,34,1,23.200008,1,38.000015,1,194.000092,0,0,1,-791.791931,1,-2030.179077,1,15814.23828,39987,1,1
13529,231,1357768,1,0,0,1,34,1,75.600029,1,-8.200004,1,191.600082,0,0,1,-771.792114,1,-1955.380127,1,15952.23828,39936,1,1
13530,232,1357863,1,0,0,1,34,1,136.000061,1,121.200058,1,136.200073,0,0,1,-738.592407,1,-2003.579468,1,16406.83398,39884,1,2
13530,232,1357863,1,0,0,1,34,1,161.600067,1,131.600067,1,124.20005,0,0,1,-481.395111,1,-2154.177979,1,16473.0332,79564,2,1
13531,233,1357965,1,0,0,1,34,1,179.800079,1,96.000046,1,124.000061,0,0,1,-611.793762,1,-1983.379639,1,16052.03613,39654,1,1
13531,233,1357965,1,0,0,1,34,1,138.600052,1,47.400021,1,118.400055,0,0,1,-617.393677,1,-2376.775879,1,15916.23731,39628,1,1
13532,234,1358065,1,0,0,1,34,1,53.200024,1,13.600004,1,123.400047,0,0,1,-275.197174,1,-1378.786011,1,15490.64063,39577,1,2
13532,234,1358065,1,0,0,1,34,1,133.200058,1,-344.400146,1,120.400055,0,0,1,-141.198608,1,-2241.376953,1,16498.83203,78873,2,1
13533,235,1358171,1,0,0,1,34,1,171.800064,1,-350.400116,1,128.200058,0,0,1,-582.394104,1,-1907.380493,1,15154.24414,39219,1,1
13533,235,1358171,1,0,0,1,34,1,307.600128,1,-281.80014,1,72.400032,0,0,1,-871.191162,1,-2159.578125,1,16419.63281,39296,1,2
13534,236,1358263,1,0,0,1,34,1,291.400146,1,-66.800026,1,76.200035,0,0,1,-323.796692,1,-1824.981445,1,16036.83789,39296,1,1
13534,236,1358263,1,0,0,1,34,1,329.000122,1,-1,1,-6.000003,0,0,1,-910.990662,1,-2165.178223,1,16692.03125,78361,2,1
13535,237,1358365,1,0,0,1,34,1,292.600128,1,104.600044,1,6.000002,0,0,1,-416.595764,1,-2654.772705,1,15450.04199,39040,1,1
13535,237,1358365,1,0,0,1,34,1,-64.600029,1,-100.000046,1,47.000019,0,0,1,-439.59552,1,-2084.578613,1,16564.83008,77823,2,2
13536,238,1358466,1,0,0,1,34,1,-150.40007,1,-311.600159,1,66.800026,0,0,1,-359.596283,1,-1918.18042,1,16505.63086,38784,1,1
13536,238,1358466,1,0,0,1,34,1,-234.800079,1,-274.80011,1,2.400001,0,0,1,-605.593811,1,-2257.376953,1,16008.23633,38732,1,1
13537,239,1358564,1,0,0,1,34,1,-205.000092,1,-94.800041,1,-51.400017,0,0,1,-1234.387329,1,-2042.579224,1,16128.83496,38656,1,2
13537,239,1358564,1,0,0,1,34,1,-153.200073,1,113.400055,1,-64.200027,0,0,1,-888.59082,1,-1703.982666,1,16571.63281,77080,2,1
13538,240,1358666,1,0,0,1,34,1,-12.800004,1,150.40007,1,-66.000023,0,0,1,-741.992371,1,-2078.97876,1,16382.63281,38528,1,1
13538,240,1358666,1,0,0,1,34,1,78.600029,1,157.000061,1,-46.400017,0,0,1,-350.196442,1,-2082.778809,1,16050.83789,38400,1,1
13539,241,1358766,1,0,0,1,34,1,109.200043,1,137.800064,1,-43.20002,0,0,1,-657.193298,1,-2033.579224,1,16200.63574,38425,1,2
13539,241,1358766,1,0,0,1,34,1,139.600067,1,211.400101,1,-57.000023,0,0,1,-420.195679,1,-1881.580688,1,15722.83984,76620,2,1
13540,242,1358866,1,0,0,1,34,1,166.800049,1,100.800041,1,-68.400032,0,0,1,-742.192444,1,-2146.577881,1,16159.83496,38220,1,1
13540,242,1358866,1,0,0,1,34,1,85.400032,1,102.800049,1,-65.600029,0,0,1,-518.594666,1,-2125.578369,1,16187.23438,76211,2,2
13541,243,1358961,1,0,0,1,34,1,61.000027,1,136.200058,1,-71.400032,0,0,1,-378.796143,1,-2165.978027,1,16359.43164,38041,1,1
13541,243,1358961,1,0,0,1,34,1,9.200006,1,87.40004,1,-62.80003,0,0,1,-483.995056,1,-2071.779053,1,16036.83789,37964,1,1
13542,244,1359066,1,0,0,1,34,1,-28.000011,1,91.000046,1,-78.000038,0,0,1,-442.395447,1,-2136.978271,1,16315.63477,37913,1,2
13542,244,1359066,1,0,0,1,34,1,-75.200035,1,-16.400007,1,-57.000023,0,0,1,-408.195862,1,-2148.978271,1,16188.43555,75570,2,1
13543,245,1359163,1,0,0,1,34,1,-105.800049,1,-78.200035,1,-60.000027,0,0,1,-550.794373,1,-1894.980591,1,16056.43555,37708,1,1
13543,245,1359163,1,0,0,1,34,1,-48.200024,1,23.60001,1,-43.800018,0,0,1,-487.195007,1,-1970.579834,1,16134.63477,75263,2,2
13544,246,1359266,1,0,0,1,34,1,41.200016,1,-8.400003,1,-44.000019,0,0,1,-494.994934,1,-2040.579224,1,16197.43457,37580,1,1
13544,246,1359266,1,0,0,1,34,1,113.600044,1,-12.200006,1,-60.000023,0,0,1,-576.994141,1,-2045.579224,1,16092.83594,37478,1,1
13545,247,1359368,1,0,0,1,34,1,109.000046,1,-30.200008,1,-50.400024,0,0,1,-520.394714,1,-1944.180176,1,16189.63574,37452,1,2
13545,247,1359368,1,0,0,1,34,1,141.000061,1,55.400024,1,-68.400024,0,0,1,-425.195648,1,-2126.578369,1,16050.83594,74777,2,1
13546,248,1359463,1,0,0,1,34,1,113.000053,1,147.200058,1,-101.800049,0,0,1,-357.796295,1,-2156.777832,1,16089.83398,37273,1,1
13546,248,1359463,1,0,0,1,34,1,81.600037,1,121.600037,1,-167.400085,0,0,1,-94.999031,1,-1879.180786,1,15969.4375,74393,2,2
13547,249,1359566,1,0,0,1,34,1,73.600029,1,-23.00001,1,-225.200104,0,0,1,-332.196594,1,-2181.977783,1,16353.43359,37068,1,1
13547,249,1359566,1,0,0,1,34,1,44.800018,1,29.000013,1,-221.000107,0,0,1,-368.39624,1,-2030.779175,1,16153.23535,37068,1,1
13548,250,1359662,1,0,0,1,34,1,19.600008,1,113.800056,1,-194.200089,0,0,1,-478.795105,1,-2182.977783,1,16357.83106,36992,1,2
13548,250,1359662,1,0,0,1,34,1,-75.600037,1,176.800064,1,-171.40007,0,0,1,-466.995209,1,-2214.977539,1,16554.43164,73804,2,1
13549,251,1359765,1,0,0,1,34,1,-149.000061,1,164.200073,1,-182.400085,0,0,1,-356.996338,1,-2146.378174,1,15989.03711,36812,1,1
13549,251,1359765,1,0,0,1,34,1,-211.000076,1,108.20005,1,-197.600098,0,0,1,-556.194336,1,-2108.378418,1,16629.83008,73369,2,2
13550,252,1359862,1,0,0,1,34,1,-230.800095,1,256.200104,1,-204.600098,0,0,1,-212.597809,1,-2114.77832,1,16572.0332,36633,1,1
13550,252,1359862,1,0,0,1,34,1,-288.000122,1,283.400116,1,-214.400101,0,0,1,-398.595917,1,-2134.778076,1,16245.83496,36608,1,2
13551,253,1359964,1,0,0,1,34,1,-207.400101,1,276.200104,1,-221.800095,0,0,1,-457.395294,1,-2040.179077,1,16251.03418,36531,1,1
13551,253,1359964,1,0,0,1,34,1,-189.200073,1,365.000183,1,-221.800095,0,0,1,-11.39987,1,-2086.378662,1,16712.62891,72883,2,1
13552,254,1360068,1,0,0,1,34,1,-48.800022,1,226.000107,1,-212.800064,0,0,1,-341.596497,1,-1937.780029,1,15484.04199,36428,1,2
13552,254,1360068,1,0,0,1,34,1,54.000027,1,226.200104,1,-202.000092,0,0,1,-466.595245,1,-1717.782471,1,16039.63574,72729,2,1
13553,255,1360174,1,0,0,1,34,1,199.600082,1,334.200134,1,-170.000076,0,0,1,7.199933,1,-1872.180786,1,15976.83691,36275,1,1
13553,255,1360174,1,0,0,1,34,1,304.400116,1,51.800018,1,-157.40007,0,0,1,96.599022,1,-1806.38147,1,15658.83984,72473,2,2
13554,0,1360265,1,0,0,1,34,1,433.600159,1,-96.200043,1,-167.800079,0,0,1,93.999031,1,-1910.180542,1,15654.03906,36172,1,1
13554,0,1360265,1,0,0,1,34,1,512.200195,1,-190.600082,1,-122.400055,0,0,1,-137.598587,1,-2086.378662,1,15742.43945,36147,1,2
13555,1,1360366,1,0,0,1,34,1,428.400208,1,-204.000092,1,-85.40004,0,0,1,-217.797791,1,-1999.979492,1,15690.24121,36096,1,1
13555,1,1360366,1,0,0,1,34,1,465.200195,1,-317.000122,1,-72.800026,0,0,1,-271.397217,1,-2125.978271,1,16200.63574,71987,2,1
13556,2,1360461,1,0,0,1,34,1,273.000092,1,-338.000153,1,-83.600037,0,0,1,-353.596405,1,-2260.576904,1,15964.83789,35839,1,2
13556,2,1360461,1,0,0,1,34,1,123.000046,1,-231.200089,1,-48.400021,0,0,1,-580.794067,1,-2365.375977,1,16458.63281,71654,2,1
13557,3,1360566,1,0,0,1,34,1,-74.600029,1,-100.200035,1,-15.600008,0,0,1,-468.195221,1,-2081.578857,1,16360.83301,35686,1,2
13557,3,1360566,1,0,0,1,34,1,-100.200043,1,-146.200073,1,-15.400007,0,0,1,-358.996338,1,-2221.177246,1,16314.03516,71193,2,1
13558,4,1360664,1,0,0,1,34,1,-225.000107,1,-304.600159,1,-24.400013,0,0,1,-265.997284,1,-2350.17627,1,16762.83008,35532,1,1
13558,4,1360664,1,0,0,1,34,1,-276.400116,1,-299.80014,1,5.600002,0,0,1,-669.993225,1,-1979.780029,1,16581.23242,70911,2,2
13559,5,1360765,1,0,0,1,34,1,-312.000153,1,-90.800034,1,-27.000013,0,0,1,-944.39032,1,-2293.976562,1,17091.625,35404,1,1
13559,5,1360765,1,0,0,1,34,1,-278.400116,1,122.60006,1,-41.600021,0,0,1,-661.593262,1,-2304.576416,1,16569.23242,70578,2,2
13560,6,1360864,1,0,0,1,34,1,-320.80014,1,78.400032,1,-22.400007,0,0,1,-592.19397,1,-2071.97876,1,16869.02734,35225,1,1
13560,6,1360864,1,0,0,1,34,1,-433.400177,1,-5.400002,1,32.600014,0,0,1,-285.197083,1,-2127.978271,1,16527.83008,35174,1,1
13561,7,1360963,1,0,0,1,34,1,-343.400146,1,-142.400055,1,72.000031,0,0,1,-417.795746,1,-1887.180786,1,15942.6377,35174,1,2
13561,7,1360963,1,0,0,1,34,1,-222.200104,1,-59.000019,1,45.800022,0,0,1,-781.992065,1,-2052.979004,1,16073.23535,70220,2,1
13562,8,1361062,1,0,0,1,34,1,-43.000019,1,61.200027,1,10.200005,0,0,1,-873.391113,1,-1851.181274,1,15824.43848,35071,1,2
13562,8,1361062,1,0,0,1,34,1,143.600052,1,175.40007,1,-21.400009,0,0,1,-945.790344,1,-2070.778809,1,16640.83008,70066,2,1
13563,9,1361165,1,0,0,1,34,1,157.600082,1,496.60022,1,-36.200016,0,0,1,-705.392822,1,-2213.177246,1,16331.83496,34943,1,2
13563,9,1361165,1,0,0,1,34,1,145.800049,1,488.800201,1,-1.800001,0,0,1,-380.196136,1,-2230.977295,1,15932.23731,69912,2,1
13564,10,1361265,1,0,0,1,34,1,20.200012,1,195.600067,1,16.800007,0,0,1,45.799538,1,-2262.776855,1,16081.63477,34892,1,1
13564,10,1361265,1,0,0,1,34,1,-146.600052,1,-137.800049,1,20.000008,0,0,1,-464.595245,1,-2333.376221,1,16116.43555,69555,2,2
13565,11,1361367,1,0,0,1,34,1,-222.000092,1,-1.399999,1,21.600008,0,0,1,-402.195923,1,-1919.18042,1,16388.0332,34764,1,1
13565,11,1361367,1,0,0,1,34,1,-163.40007,1,156.800064,1,-20.200008,0,0,1,-355.396332,1,-2094.378662,1,16367.43262,69375,2,2
13566,12,1361464,1,0,0,1,34,1,-53.200016,1,42.400013,1,-21.400007,0,0,1,-516.794678,1,-2273.976562,1,16196.63379,34662,1,1
13566,12,1361464,1,0,0,1,34,1,60.000023,1,-120.000046,1,33.000015,0,0,1,-166.3983,1,-2092.778564,1,16421.63281,69247,2,2
13567,13,1361563,1,0,0,1,34,1,73.000031,1,-234.000107,1,91.600044,0,0,1,-273.397217,1,-2256.176758,1,16474.63281,34611,1,1
13567,13,1361563,1,0,0,1,34,1,41.400021,1,-216.000107,1,94.40004,0,0,1,-431.395569,1,-2316.576416,1,16261.23242,34560,1,2
13568,14,1361665,1,0,0,1,34,1,-4.200002,1,-183.800079,1,62.200024,0,0,1,-389.196045,1,-2303.176514,1,15910.03711,34508,1,1
13568,14,1361665,1,0,0,1,34,1,-45.800022,1,-324.600128,1,71.800034,0,0,1,-487.195007,1,-2053.979004,1,16197.03516,68914,2,1
13569,15,1361764,1,0,0,1,34,1,-83.000031,1,-229.200089,1,44.600018,0,0,1,-711.792725,1,-2192.977295,1,16080.83496,34431,1,2
13569,15,1361764,1,0,0,1,34,1,-75.800034,1,8.000005,1,22.800011,0,0,1,-824.791565,1,-2255.177002,1,16300.0332,68786,2,1
13570,16,1361861,1,0,0,1,34,1,-36.600014,1,75.000023,1,2.200001,0,0,1,-529.19458,1,-2118.978516,1,16269.23242,34304,1,2
13570,16,1361861,1,0,0,1,34,1,-16.000006,1,72.800026,1,-37.800014,0,0,1,-615.793701,1,-2287.776611,1,16379.43164,68582,2,1
13571,17,1361960,1,0,0,1,34,1,-36.000019,1,61.600029,1,-33.000015,0,0,1,-322.796692,1,-2129.378418,1,16016.43652,34278,1,2
13571,17,1361960,1,0,0,1,34,1,-7.000003,1,50.20002,1,-29.200014,0,0,1,-474.395172,1,-2111.978516,1,15937.83789,68479,2,1
13572,18,1362062,1,0,0,1,34,1,9.000004,1,143.40007,1,-36.000015,0,0,1,-313.596802,1,-2214.977539,1,16129.83594,34175,1,2
13572,18,1362062,1,0,0,1,34,1,66.400024,1,-3.2,1,-36.800014,0,0,1,-438.995483,1,-2090.378662,1,16160.83496,68274,2,1
13573,19,1362168,1,0,0,1,34,1,154.600067,1,-56.000023,1,-26.20001,0,0,1,-205.597885,1,-2125.578369,1,15860.4375,34150,1,2
13573,19,1362168,1,0,0,1,34,1,199.800079,1,-61.000027,1,-32.000011,0,0,1,-255.397354,1,-2152.37793,1,16013.63574,68223,2,1
13574,20,1362265,1,0,0,1,34,1,203.800095,1,-220.800095,1,-1.4,0,0,1,-227.797684,1,-2275.776611,1,15999.83594,34048,1,1
13574,20,1362265,1,0,0,1,34,1,197.000076,1,-343.200165,1,16.000006,0,0,1,-380.59613,1,-2069.578857,1,15938.23731,68018,2,2
13575,21,1362364,1,0,0,1,34,1,258.400116,1,-336.200134,1,26.20001,0,0,1,-431.995605,1,-2163.577881,1,15930.23731,33996,1,1
13575,21,1362364,1,0,0,1,34,1,259.200104,1,-305.000122,1,6.200003,0,0,1,-378.196136,1,-2308.776367,1,15631.83984,67916,2,2
13576,22,1362462,1,0,0,1,34,1,236.200089,1,-419.200165,1,19.000008,0,0,1,-470.995209,1,-2117.378174,1,16135.2334,33894,1,1
13576,22,1362462,1,0,0,1,34,1,217.000107,1,-384.800171,1,49.800018,0,0,1,-626.593567,1,-2239.577148,1,16101.83496,67685,2,2
13577,23,1362564,1,0,0,1,34,1,178.200073,1,-322.200104,1,28.800011,0,0,1,-520.194702,1,-2264.976807,1,16075.4375,33843,1,1
13577,23,1362564,1,0,0,1,34,1,130.000061,1,-304.200104,1,19.600008,0,0,1,-656.393311,1,-2326.976318,1,16048.23731,67582,2,2
13578,24,1362663,1,0,0,1,34,1,74.600029,1,-317.600159,1,-2.000001,0,0,1,-544.39447,1,-2357.776123,1,16307.63477,33689,1,1
13578,24,1362663,1,0,0,1,34,1,-8.000003,1,-333.400177,1,20.200008,0,0,1,-884.190918,1,-2261.976807,1,16109.83496,67353,2,2
13579,25,1362760,1,0,0,1,34,1,-43.800014,1,-158.000076,1,-1.000001,0,0,1,-707.19281,1,-2361.775879,1,16443.23242,33638,1,1
13579,25,1362760,1,0,0,1,34,1,-85.800034,1,-97.200043,1,-11.600004,0,0,1,-722.792664,1,-2325.776367,1,16272.63379,67199,2,2
13580,26,1362861,1,0,0,1,34,1,-141.800064,1,-124.400047,1,-33.200016,0,0,1,-587.794006,1,-2172.777832,1,16085.63574,33510,1,1
13580,26,1362861,1,0,0,1,34,1,-83.200027,1,-207.000076,1,-17.800007,0,0,1,-692.792908,1,-2260.376953,1,16196.83594,67020,2,2
13581,27,1362964,1,0,0,1,34,1,-27.600012,1,-119.800049,1,-13.800006,0,0,1,-675.193054,1,-2173.778076,1,16391.83203,33510,1,1
13581,27,1362964,1,0,0,1,34,1,2.200001,1,-39.000019,1,-28.000011,0,0,1,-805.191833,1,-2314.776367,1,16029.63574,66918,2,2
13582,28,1363063,1,0,0,1,34,1,53.200016,1,1.8,1,-61.200027,0,0,1,-610.793762,1,-2232.377441,1,16561.62891,33356,1,1
13582,28,1363063,1,0,0,1,34,1,24.600012,1,-10.800005,1,-23.800011,0,0,1,-718.392578,1,-2395.375732,1,16011.83594,66713,2,2
13583,29,1363162,1,0,0,1,34,1,-33.000015,1,-28.400011,1,-16.000006,0,0,1,-841.191467,1,-2350.176025,1,16195.23438,33356,1,1
13583,29,1363162,1,0,0,1,34,1,-81.400032,1,109.200043,1,-28.800013,0,0,1,-685.993042,1,-2098.97876,1,16404.63086,66584,2,2
13584,30,1363265,1,0,0,1,34,1,-75.800034,1,148.400055,1,-43.600021,0,0,1,-738.592468,1,-2343.776123,1,15872.23828,33228,1,1
13584,30,1363265,1,0,0,1,34,1,-71.200027,1,74.000031,1,-71.600029,0,0,1,-786.791992,1,-2299.57666,1,16332.43262,66431,2,2
13585,31,1363364,1,0,0,1,34,1,-49.400017,1,189.600082,1,-61.80003,0,0,1,-697.992859,1,-2409.175537,1,16408.43164,33228,1,1
13585,31,1363364,1,0,0,1,34,1,-135.400055,1,239.400101,1,-75.800034,0,0,1,-585.994019,1,-2236.977295,1,16327.63379,66277,2,2
13586,32,1363462,1,0,0,1,34,1,-134.200058,1,294.200104,1,-88.000038,0,0,1,-693.392822,1,-2358.375977,1,16277.63379,33075,1,1
13586,32,1363462,1,0,0,1,34,1,-126.400055,1,326.600128,1,-89.600037,0,0,1,-559.994324,1,-2281.376709,1,16431.43164,66201,2,2
13587,33,1363563,1,0,0,1,34,1,-179.200058,1,209.600082,1,-65.600029,0,0,1,-526.794678,1,-2395.775879,1,16242.03516,33075,1,1
13587,33,1363563,1,0,0,1,34,1,-175.800064,1,298.80011,1,-93.200035,0,0,1,-638.593506,1,-2291.376465,1,16544.22852,66021,2,2
13588,34,1363662,1,0,0,1,34,1,-152.800064,1,355.600128,1,-74.600037,0,0,1,-474.395172,1,-2244.576904,1,16211.63477,32998,1,1
13588,34,1363662,1,0,0,1,34,1,-139.000061,1,253.400101,1,-78.000038,0,0,1,-714.192749,1,-2108.578613,1,16130.63574,65944,2,2
13589,35,1363763,1,0,0,1,34,1,-99.600037,1,311.80011,1,-59.600021,0,0,1,-230.197617,1,-2288.176514,1,16255.0332,32947,1,1
13589,35,1363763,1,0,0,1,34,1,-51.200024,1,175.800064,1,-62.200024,0,0,1,-264.59729,1,-1994.179688,1,15732.24023,65868,2,2
13590,36,1363861,1,0,0,1,34,1,128.400055,1,54.800022,1,-66.400024,0,0,1,-392.796021,1,-2114.978516,1,15988.03613,32896,1,1
13590,36,1363861,1,0,0,1,34,1,198.400085,1,3.600001,1,-46.800018,0,0,1,-216.397797,1,-2107.978516,1,16309.63281,65740,2,2
13591,37,1363963,1,0,0,1,34,1,241.000107,1,-12.400005,1,-41.000015,0,0,1,-564.994263,1,-2345.776367,1,15853.83887,32896,1,1
13591,37,1363963,1,0,0,1,34,1,235.400085,1,68.200035,1,-46.400017,0,0,1,-388.996033,1,-2302.176514,1,16164.03418,65714,2,2
13592,38,1364060,1,0,0,1,34,1,115.800049,1,-41.800018,1,-11.600004,0,0,1,-478.595123,1,-2313.576416,1,16215.43457,32742,1,1
13592,38,1364060,1,0,0,1,34,1,-109.000038,1,-97.600044,1,16.800007,0,0,1,-626.193604,1,-2176.777832,1,16765.83008,65407,2,2
13593,39,1364163,1,0,0,1,34,1,-301.80011,1,-0.2,1,-2.800001,0,0,1,-540.994507,1,-2323.17627,1,16694.62891,32614,1,2
13593,39,1364163,1,0,0,1,34,1,-478.400208,1,68.400024,1,-29.800013,0,0,1,-612.993713,1,-2068.979004,1,17136.82422,65151,2,1
13594,40,1364262,1,0,0,1,34,1,-627.400269,1,60.400028,1,-28.000013,0,0,1,-560.594238,1,-1705.582642,1,16242.0332,32460,1,2
13594,40,1364262,1,0,0,1,34,1,-546.400208,1,-13.800005,1,-32.000011,0,0,1,-509.594818,1,-1792.181641,1,16684.43164,64869,2,1
13595,41,1364365,1,0,0,1,34,1,-381.000122,1,44.800018,1,-56.600021,0,0,1,-556.194336,1,-1482.984741,1,15824.83887,32409,1,2
13595,41,1364365,1,0,0,1,34,1,-36.800014,1,91.200035,1,-50.600021,0,0,1,-447.79541,1,-1535.384277,1,16432.83203,64766,2,1
13596,42,1364462,1,0,0,1,34,1,212.800095,1,78.600029,1,-60.600029,0,0,1,-179.198196,1,-1498.384766,1,16146.83301,32332,1,2
13596,42,1364462,1,0,0,1,34,1,424.600159,1,-129.000061,1,-11.400004,0,0,1,-665.193237,1,-1945.380127,1,15525.6416,64639,2,1
13597,43,1364562,1,0,0,1,34,1,420.400177,1,-144.800064,1,-0.2,0,0,1,-133.398651,1,-1612.583496,1,16028.63574,32281,1,2
13597,43,1364562,1,0,0,1,34,1,346.200134,1,-204.200089,1,18.600006,0,0,1,-309.996857,1,-2059.378906,1,15898.83789,64460,2,1
13598,44,1364659,1,0,0,1,34,1,161.000076,1,-306.80014,1,19.000008,0,0,1,-452.195374,1,-1968.379883,1,16052.03613,64229,2,2
13598,44,1364659,1,0,0,1,34,1,-39.600018,1,-316.600128,1,8.600003,0,0,1,-537.19458,1,-2066.778809,1,16552.43164,64101,2,2
13599,45,1364762,1,0,0,1,34,1,-198.600082,1,-294.000122,1,11.000004,0,0,1,-839.391541,1,-2029.979248,1,16602.23047,31974,1,1
13599,45,1364762,1,0,0,1,34,1,-287.400116,1,-90.400032,1,4.000002,0,0,1,-780.992004,1,-2123.178467,1,16519.83008,63794,2,2
13600,46,1364859,1,0,0,1,34,1,-411.600189,1,-40.200016,1,-15.400005,0,0,1,-725.59259,1,-2102.178711,1,16959.82813,31795,1,1
13600,46,1364859,1,0,0,1,34,1,-422.000183,1,-17.600008,1,-26.600012,0,0,1,-715.992676,1,-1727.582275,1,16462.63281,63615,2,2
13601,47,1364963,1,0,0,1,34,1,-308.000153,1,160.200073,1,-56.200024,0,0,1,-760.1922,1,-1887.180786,1,16662.42969,31820,1,1
13601,47,1364963,1,0,0,1,34,1,-148.200058,1,275.600128,1,-69.600029,0,0,1,-830.591614,1,-1719.382324,1,16169.43555,63488,2,2
13602,48,1365060,1,0,0,1,34,1,-24.20001,1,157.200073,1,-95.200035,0,0,1,-713.792725,1,-1682.782837,1,16286.23438,31692,1,2
13602,48,1365060,1,0,0,1,34,1,189.800079,1,289.400116,1,-103.800041,0,0,1,-281.797119,1,-1938.580322,1,16023.23731,63410,2,1
13603,49,1365161,1,0,0,1,34,1,248.400101,1,162.200058,1,-72.600029,0,0,1,-511.594757,1,-1806.781494,1,15446.84277,31692,1,2
13603,49,1365161,1,0,0,1,34,1,317.80014,1,60.800026,1,-63.200027,0,0,1,-149.59848,1,-1805.381592,1,16362.43262,63257,2,1
13604,50,1365260,1,0,0,1,34,1,238.000092,1,-85.800034,1,-2.800001,0,0,1,-303.996887,1,-1981.179688,1,16262.43359,31539,1,2
13604,50,1365260,1,0,0,1,34,1,151.200058,1,-99.40004,1,18.400007,0,0,1,-557.794312,1,-1969.379883,1,15557.44043,63077,2,2
13605,51,1365364,1,0,0,1,34,1,51.000023,1,-21.400009,1,12.400005,0,0,1,-173.998215,1,-2027.379272,1,16176.83398,63052,2,1
13605,51,1365364,1,0,0,1,34,1,-19.200008,1,-305.600128,1,43.400013,0,0,1,-293.797028,1,-1947.580078,1,16312.0332,62796,2,2
13606,52,1365459,1,0,0,1,34,1,-59.20002,1,-415.400177,1,63.200027,0,0,1,-636.793518,1,-2229.577148,1,16676.42969,31385,1,1
13606,52,1365459,1,0,0,1,34,1,-113.000053,1,-231.800095,1,26.400011,0,0,1,-669.793152,1,-1888.78064,1,16230.03418,62642,2,2
13607,53,1365559,1,0,0,1,34,1,-140.40007,1,-67.000031,1,-16.400007,0,0,1,-924.190491,1,-2239.776855,1,16810.82813,31283,1,1
13607,53,1365559,1,0,0,1,34,1,-195.000092,1,-46.400017,1,-37.000015,0,0,1,-613.59375,1,-1850.580933,1,16370.83301,62463,2,2
13608,54,1365661,1,0,0,1,34,1,-146.600052,1,-118.400055,1,-21.400009,0,0,1,-546.194397,1,-2020.97937,1,16366.2334,31232,1,2
13608,54,1365661,1,0,0,1,34,1,-130.400055,1,-118.60006,1,-36.600014,0,0,1,-537.594482,1,-1817.581421,1,16796.42969,62412,2,1
13609,55,1365759,1,0,0,1,34,1,-62.200031,1,-17.400005,1,-18.000008,0,0,1,-776.39209,1,-2036.779175,1,16050.23535,31129,1,2
13609,55,1365759,1,0,0,1,34,1,-51.600025,1,-10.800003,1,-23.200008,0,0,1,-562.994202,1,-1928.380371,1,16146.43652,62207,2,1
13610,56,1365860,1,0,0,1,34,1,37.600018,1,-50.800026,1,-32.800011,0,0,1,-670.393127,1,-2036.979126,1,15998.43848,62233,2,2
13610,56,1365860,1,0,0,1,34,1,68.200035,1,-3.4,1,-21.800011,0,0,1,-475.395172,1,-1983.57959,1,16009.03613,62105,2,2
13611,57,1365963,1,0,0,1,34,1,103.20005,1,-54.400021,1,-4.600002,0,0,1,-790.591919,1,-1903.380493,1,16312.83496,31027,1,1
13611,57,1365963,1,0,0,1,34,1,108.20005,1,36.400017,1,-9.400004,0,0,1,-365.596252,1,-2347.376221,1,16003.43555,62002,2,2
13612,58,1366060,1,0,0,1,34,1,56.000023,1,-134.200058,1,-1.800001,0,0,1,-854.991272,1,-1985.179932,1,16078.23535,30950,1,2
13612,58,1366060,1,0,0,1,34,1,9.800003,1,16.000006,1,-6.800003,0,0,1,-595.793884,1,-2077.778809,1,16596.23047,61900,2,1
13613,59,1366164,1,0,0,1,34,1,-82.400032,1,-54.600021,1,9.600004,0,0,1,-913.79071,1,-2266.376953,1,16428.43164,30847,1,2
13613,59,1366164,1,0,0,1,34,1,-149.600067,1,-111.000046,1,56.800022,0,0,1,-671.393188,1,-2086.97876,1,16146.63574,61720,2,1
13614,60,1366261,1,0,0,1,34,1,-147.800064,1,-96.200043,1,88.200043,0,0,1,-900.390808,1,-1921.780396,1,16581.83203,61694,2,2
13614,60,1366261,1,0,0,1,34,1,-133.200058,1,23.00001,1,98.000046,0,0,1,-781.191956,1,-2036.179199,1,15712.8418,61567,2,2
13615,61,1366360,1,0,0,1,34,1,3.400002,1,-45.20002,1,76.800034,0,0,1,-1018.389587,1,-2074.178711,1,16684.62891,30796,1,1
13615,61,1366360,1,0,0,1,34,1,52.000027,1,76.200035,1,74.000031,0,0,1,-637.593506,1,-1924.580322,1,16261.23438,61567,2,2
13616,62,1366459,1,0,0,1,34,1,108.800056,1,152.200058,1,37.200016,0,0,1,-828.591492,1,-2072.578857,1,15970.03711,30771,1,2
13616,62,1366459,1,0,0,1,34,1,121.400055,1,164.600067,1,32.400013,0,0,1,-529.194641,1,-2165.777832,1,15978.83789,61465,2,1
13617,63,1366561,1,0,0,1,34,1,66.000031,1,-11.200005,1,24.600012,0,0,1,-589.993958,1,-2031.979248,1,16058.83594,30720,1,2
13617,63,1366561,1,0,0,1,34,1,33.800014,1,-33.800018,1,15.600008,0,0,1,-468.395233,1,-2130.178223,1,16275.83398,61362,2,1
13618,64,1366660,1,0,0,1,34,1,28.800013,1,58.800026,1,11.200005,0,0,1,-623.993591,1,-2106.978516,1,15985.4375,61311,2,2
13618,64,1366660,1,0,0,1,34,1,7.200003,1,34.000011,1,26.400011,0,0,1,-744.392395,1,-2062.178955,1,16652.23047,61234,2,2
13619,65,1366763,1,0,0,1,34,1,-8.200004,1,-9.800005,1,40.800018,0,0,1,-660.993286,1,-2281.376709,1,15907.03711,30592,1,1
13619,65,1366763,1,0,0,1,34,1,-59.000027,1,29.000013,1,44.600018,0,0,1,-720.792664,1,-2075.578857,1,16506.43164,61209,2,2
13620,66,1366861,1,0,0,1,34,1,-93.000038,1,1.400002,1,51.800026,0,0,1,-608.793823,1,-2153.378174,1,16647.0293,30515,1,2
13620,66,1366861,1,0,0,1,34,1,-118.60006,1,60.400028,1,35.800014,0,0,1,-965.390198,1,-2271.976562,1,16349.23438,61055,2,1
13621,67,1366961,1,0,0,1,34,1,-185.600067,1,178.40007,1,1.2,0,0,1,-914.590698,1,-2273.776611,1,16584.63086,30489,1,2
13621,67,1366961,1,0,0,1,34,1,-202.400085,1,338.80014,1,-43.000015,0,0,1,-734.592529,1,-1976.979736,1,16334.03418,60978,2,2
13622,68,1367059,1,0,0,1,34,1,-179.200073,1,364.400177,1,-50.000023,0,0,1,-751.992371,1,-2221.7771,1,16342.03223,60928,2,1
13622,68,1367059,1,0,0,1,34,1,-193.400085,1,352.600159,1,-38.800018,0,0,1,-583.194092,1,-2073.97876,1,16470.03125,60902,2,2
13623,69,1367162,1,0,0,1,34,1,-132.200058,1,406.200165,1,-58.800026,0,0,1,-535.394531,1,-2029.379272,1,16258.83496,30438,1,1
13623,69,1367162,1,0,0,1,34,1,-61.80003,1,379.600128,1,-49.400024,0,0,1,-398.195923,1,-2196.377441,1,16305.2334,60825,2,2
13624,70,1367260,1,0,0,1,34,1,-52.20002,1,304.400116,1,-38.800018,0,0,1,-341.396515,1,-2053.578857,1,16232.23438,30438,1,2
13624,70,1367260,1,0,0,1,34,1,-5.000003,1,194.400085,1,-14.400006,0,0,1,-323.396698,1,-2034.179077,1,16237.83301,60799,2,1
13625,71,1367363,1,0,0,1,34,1,-17.800007,1,202.200089,1,-23.400009,0,0,1,-308.996826,1,-2133.978027,1,16004.23731,60799,2,2
13625,71,1367363,1,0,0,1,34,1,-7.400004,1,13.400003,1,4.000001,0,0,1,-146.598511,1,-2047.979126,1,16218.63379,60723,2,2
13626,72,1367461,1,0,0,1,34,1,29.000013,1,-194.400085,1,38.200016,0,0,1,-248.797455,1,-2302.776611,1,16764.82813,30387,1,1
13626,72,1367461,1,0,0,1,34,1,-26.000013,1,-201.400085,1,37.000015,0,0,1,-511.7948,1,-2171.577637,1,16169.43555,60595,2,2
13627,73,1367560,1,0,0,1,34,1,-60.000027,1,-93.600037,1,26.00001,0,0,1,-816.591675,1,-2539.574219,1,17002.625,30361,1,2
13627,73,1367560,1,0,0,1,34,1,-219.000076,1,-65.600029,1,49.800018,0,0,1,-419.995697,1,-2046.779175,1,15871.83594,60543,2,1
13628,74,1367659,1,0,0,1,34,1,-194.200089,1,-234.000107,1,51.000023,0,0,1,-657.993225,1,-2439.574951,1,16818.82813,30336,1,2
13628,74,1367659,1,0,0,1,34,1,-298.000122,1,-71.800041,1,48.20002,0,0,1,-607.593811,1,-2137.778076,1,16423.43164,60569,2,2
13629,75,1367763,1,0,0,1,34,1,-78.40004,1,18.200006,1,0,0,0,1,-551.994324,1,-2298.376465,1,15790.43945,60646,2,1
13629,75,1367763,1,0,0,1,34,1,-19.000008,1,-39.800018,1,-33.800011,0,0,1,-349.396454,1,-2472.774658,1,16559.23047,60672,2,2
13630,76,1367859,1,0,0,1,34,1,51.400017,1,-81.800041,1,-36.200016,0,0,1,-508.594818,1,-2458.574951,1,15900.23731,30361,1,2
13630,76,1367859,1,0,0,1,34,1,204.600067,1,60.200027,1,-27.00001,0,0,1,-740.792419,1,-2924.370117,1,16133.03516,60902,2,1
13631,77,1367959,1,0,0,1,34,1,227.200073,1,246.000092,1,-59.000027,0,0,1,-744.192383,1,-3074.168213,1,15972.43652,30412,1,2
13631,77,1367959,1,0,0,1,34,1,64.000038,1,346.80014,1,-69.000023,0,0,1,-857.191284,1,-3250.166992,1,16302.43359,60928,2,1
13632,78,1368060,1,0,0,1,34,1,-73.400024,1,464.200226,1,-59.20002,0,0,1,-292.99704,1,-2961.769531,1,16304.03516,61055,2,2
13632,78,1368060,1,0,0,1,34,1,-201.200089,1,441.600189,1,-55.800022,0,0,1,-411.595825,1,-2970.569824,1,16264.0332,61106,2,2
13633,79,1368159,1,0,0,1,34,1,-186.600082,1,314.200134,1,-67.600021,0,0,1,-85.199127,1,-2903.170654,1,15950.43555,30592,1,1
13633,79,1368159,1,0,0,1,34,1,-97.200043,1,41.400021,1,-43.400021,0,0,1,-67.399307,1,-2798.771484,1,15861.83887,61337,2,2
13634,80,1368258,1,0,0,1,34,1,71.800034,1,-26.600012,1,-58.200024,0,0,1,-70.19928,1,-2682.172607,1,15899.23633,30771,1,2
13634,80,1368258,1,0,0,1,34,1,310.80014,1,-115.800049,1,-41.200016,0,0,1,85.99913,1,-2776.371826,1,15712.6377,61567,2,1
13635,81,1368362,1,0,0,1,34,1,444.60022,1,-271.200104,1,1.8,0,0,1,-137.39859,1,-2975.56958,1,15958.83594,30822,1,2
13635,81,1368362,1,0,0,1,34,1,409.000183,1,-335.600128,1,55.800026,0,0,1,-161.79834,1,-3052.769043,1,15901.83984,61798,2,1
13636,82,1368460,1,0,0,1,34,1,235.80011,1,-288.000122,1,80.400032,0,0,1,-253.597397,1,-3119.567871,1,15812.4375,61900,2,2
13636,82,1368460,1,0,0,1,34,1,59.000031,1,-194.000092,1,43.800018,0,0,1,-330.396637,1,-3100.768311,1,15926.83691,61900,2,2
13637,83,1368559,1,0,0,1,34,1,-139.000061,1,-263.600098,1,-4.400002,0,0,1,-385.996033,1,-3004.169434,1,16253.43359,31001,1,1
13637,83,1368559,1,0,0,1,34,1,-228.800095,1,-217.000076,1,-94.800041,0,0,1,-460.395355,1,-3024.569092,1,16445.83398,62079,2,2
13638,84,1368657,1,0,0,1,34,1,-180.800079,1,-81.800034,1,-170.600067,0,0,1,-469.195221,1,-3000.769287,1,16204.2334,31078,1,2
13638,84,1368657,1,0,0,1,34,1,-99.600044,1,-26.800013,1,-200.600082,0,0,1,-306.196869,1,-2828.77124,1,16514.03125,62233,2,1
13639,85,1368761,1,0,0,1,34,1,-29.800016,1,2.2,1,-187.200089,0,0,1,-405.195862,1,-2942.769775,1,16138.23535,31206,1,2
13639,85,1368761,1,0,0,1,34,1,58.600025,1,134.000061,1,-170.000061,0,0,1,-259.197357,1,-3090.168701,1,15823.23926,62540,2,1
13640,86,1368859,1,0,0,1,34,1,37.400017,1,45.000011,1,-137.000046,0,0,1,219.197754,1,-2792.971436,1,16635.0293,31334,1,2
13640,86,1368859,1,0,0,1,34,1,39.600018,1,-345.000122,1,-78.000038,0,0,1,115.798828,1,-3172.767578,1,16077.83691,62642,2,1
13641,87,1368957,1,0,0,1,34,1,-42.400017,1,-474.000183,1,-28.600012,0,0,1,-191.798035,1,-2954.769775,1,16003.83691,62847,2,2
13641,87,1368957,1,0,0,1,34,1,-100.40004,1,-374.800171,1,-32.000011,0,0,1,-477.995117,1,-2951.969727,1,16147.63477,62949,2,2
13642,88,1369060,1,0,0,1,34,1,-194.000061,1,-238.000092,1,-78.40004,0,0,1,-410.595764,1,-2770.571777,1,16576.42969,31487,1,1
13642,88,1369060,1,0,0,1,34,1,-225.400101,1,-336.000122,1,-79.400032,0,0,1,-669.59314,1,-2594.973389,1,16103.03516,63000,2,2
13643,89,1369161,1,0,0,1,34,1,-150.200058,1,-129.200058,1,-73.200027,0,0,1,-462.595306,1,-2672.9729,1,16780.0293,31590,1,1
13643,89,1369161,1,0,0,1,34,1,-228.200089,1,-139.000061,1,-117.000053,0,0,1,-423.595642,1,-2384.375732,1,15861.43848,63128,2,2
13644,90,1369262,1,0,0,1,34,1,-156.000076,1,-153.200058,1,-107.800049,0,0,1,-791.391907,1,-2497.374512,1,16262.83398,31590,1,2
13644,90,1369262,1,0,0,1,34,1,-172.000076,1,151.000061,1,-146.600052,0,0,1,-767.192139,1,-2624.173096,1,16481.43164,63206,2,1
13645,91,1369361,1,0,0,1,34,1,-155.000061,1,314.400116,1,-175.800064,0,0,1,-631.793579,1,-2393.575684,1,16058.6377,31641,1,2
13645,91,1369361,1,0,0,1,34,1,-178.200073,1,273.600098,1,-186.200089,0,0,1,77.999191,1,-2412.575439,1,16337.03223,63308,2,1
13646,92,1369458,1,0,0,1,34,1,-82.600037,1,-18.600008,1,-124.000046,0,0,1,-191.198059,1,-2525.174316,1,16292.83398,31667,1,2
13646,92,1369458,1,0,0,1,34,1,-101.800041,1,-56.400021,1,-93.800034,0,0,1,-323.196716,1,-2424.775146,1,16348.43457,63384,2,1
13647,93,1369564,1,0,0,1,34,1,-31.600016,1,35.400013,1,-130.400055,0,0,1,-424.795654,1,-2295.776611,1,15894.03906,63488,2,2
13647,93,1369564,1,0,0,1,34,1,51.600025,1,49.400024,1,-117.600037,0,0,1,-301.596924,1,-2573.773682,1,16162.43457,63538,2,2
13648,94,1369663,1,0,0,1,34,1,-5.600003,1,-83.000031,1,-96.40004,0,0,1,-315.39679,1,-2407.575684,1,16327.83301,31769,1,1
13648,94,1369663,1,0,0,1,34,1,-17.800007,1,-125.20005,1,-67.200027,0,0,1,-339.396515,1,-2578.173584,1,16617.23047,63640,2,2
13649,95,1369760,1,0,0,1,34,1,-45.600018,1,-84.200035,1,-61.400028,0,0,1,-331.196625,1,-2530.974121,1,16160.03516,31820,1,1
13649,95,1369760,1,0,0,1,34,1,-72.000031,1,-149.400055,1,-98.000046,0,0,1,-591.593994,1,-2367.176025,1,15936.6377,63717,2,2
13650,96,1369860,1,0,0,1,34,1,-90.600037,1,-50.800026,1,-119.400047,0,0,1,-444.995483,1,-2331.776123,1,16024.03516,31846,1,1
13650,96,1369860,1,0,0,1,34,1,-8.400004,1,-15.000007,1,-110.600044,0,0,1,-554.794312,1,-2493.774414,1,16199.2334,63820,2,2
13651,97,1369961,1,0,0,1,34,1,92.600044,1,87.40004,1,-130.200043,0,0,1,-279.597137,1,-2172.977783,1,16050.83594,31948,1,2
13651,97,1369961,1,0,0,1,34,1,195.200089,1,-43.800014,1,-112.200035,0,0,1,-393.595978,1,-2578.973877,1,15953.03809,63948,2,1
13652,98,1370058,1,0,0,1,34,1,186.600067,1,-75.400032,1,-112.400047,0,0,1,-329.396667,1,-2506.374268,1,16218.63379,32000,1,2
13652,98,1370058,1,0,0,1,34,1,75.600037,1,-48.800022,1,-101.400047,0,0,1,-493.59491,1,-2279.176758,1,16304.23438,64050,2,1
13653,99,1370162,1,0,0,1,34,1,49.600021,1,110.800049,1,-122.000053,0,0,1,-626.393616,1,-2487.774658,1,15726.43945,32051,1,2
13653,99,1370162,1,0,0,1,34,1,27.200014,1,180.800064,1,-122.400055,0,0,1,-583.394104,1,-2567.973633,1,16135.83496,64101,2,1
13654,100,1370265,1,0,0,1,34,1,-24.400011,1,190.000076,1,-103.000038,0,0,1,-681.593018,1,-2702.772461,1,16350.23438,32076,1,2
13654,100,1370265,1,0,0,1,34,1,-98.400047,1,299.600128,1,-133.200058,0,0,1,-420.795685,1,-2446.174805,1,16542.43164,64178,2,2
13655,101,1370358,1,0,0,1,34,1,-129.400055,1,346.000153,1,-129.400055,0,0,1,-353.196381,1,-2679.57251,1,16127.03613,64204,2,1
13655,101,1370358,1,0,0,1,34,1,-160.600082,1,188.200073,1,-147.400055,0,0,1,-141.99855,1,-2389.575439,1,16379.23242,64307,2,2
13656,102,1370461,1,0,0,1,34,1,-186.200073,1,57.200024,1,-152.000061,0,0,1,-298.396912,1,-2460.974854,1,16440.83203,32153,1,1
13656,102,1370461,1,0,0,1,34,1,-141.600067,1,165.400055,1,-170.200058,0,0,1,-323.996674,1,-2377.575684,1,15955.83691,64408,2,2
13657,103,1370557,1,0,0,1,34,1,-1.800001,1,149.40007,1,-158.40007,0,0,1,-181.798141,1,-2315.376465,1,16180.63379,32230,1,1
13657,103,1370557,1,0,0,1,34,1,147.400055,1,-51.800018,1,-110.200043,0,0,1,58.599411,1,-2434.575195,1,16222.03516,64562,2,2
13658,104,1370658,1,0,0,1,34,1,181.800079,1,-286.80011,1,-37.800018,0,0,1,150.198486,1,-2492.574707,1,16418.83203,32332,1,1
